xPos,corrAns,yPos,corrGoResp,yPosGoStim,xPosGoStim,pracTrials.thisRepN,pracTrials.thisTrialN,pracTrials.thisN,pracTrials.thisIndex,ReDoLoopPrac.thisRepN,ReDoLoopPrac.thisTrialN,ReDoLoopPrac.thisN,ReDoLoopPrac.thisIndex,ReDoLoopPrac.thisTrial,pracStopTrials.thisRepN,pracStopTrials.thisTrialN,pracStopTrials.thisN,pracStopTrials.thisIndex,Blocks.thisRepN,Blocks.thisTrialN,Blocks.thisN,Blocks.thisIndex,trials.thisRepN,trials.thisTrialN,trials.thisN,trials.thisIndex,ReDoLoopMain.thisRepN,ReDoLoopMain.thisTrialN,ReDoLoopMain.thisN,ReDoLoopMain.thisIndex,ReDoLoopMain.thisTrial,StopBlocks.thisRepN,StopBlocks.thisTrialN,StopBlocks.thisN,StopBlocks.thisIndex,StopTrials.thisRepN,StopTrials.thisTrialN,StopTrials.thisN,StopTrials.thisIndex,auctionBlocks.thisRepN,auctionBlocks.thisTrialN,auctionBlocks.thisN,auctionBlocks.thisIndex,auctionTrials.thisRepN,auctionTrials.thisTrialN,auctionTrials.thisN,auctionTrials.thisIndex,ok1.keys,ok1.rt,StartTrialTimeStamp,resp.keys,resp.corr,feedbackResp.keys,feedbackResp.corr,feedbackResp.rt,firstPracComputedRewardOutput,firstPracLearningStimOnset,firstPracLearningFixOnset,firstPracPresentationRT,firstPracPresentationAcc,firstPracPresentationResp,firstPracEndTrialTimeStamp,resp.rt,secondPracComputedRewardOutput,secondPracLearningStimOnset,secondPracLearningFixOnset,secondPracPresentationRT,secondPracPresentationAcc,secondPracPresentationResp,secondPracEndTrialTimeStamp,trialType,goStim,goResp.keys,goResp.corr,goResp.rt,key_resp_9.keys,key_resp_9.corr,fixStopOnset,goStimOnset,EndTrialTimeStamp,stopSignalOnset,key_resp_3.keys,key_resp_3.rt,firstComputedRewardOutput,firstLearningStimOnset,firstLearningFixOnset,firstPresentationRT,firstPresentationAcc,firstPresentationResp,firstEndTrialTimeStamp,secondComputedRewardOutput,secondLearningStimOnset,secondLearningFixOnset,secondPresentationRT,secondPresentationAcc,secondPresentationResp,secondEndTrialTimeStamp,key_resp_7.keys,key_resp_7.rt,beginningSSD,EndingSSD,key_resp_9.rt,key_resp_4.keys,key_resp_4.rt,auctionResponse.keys,auctionResponse.rt,auctionStimDuration,key_resp_5.keys,key_resp_5.rt,key_resp_6.keys,key_resp_6.rt,date,frameRate,expName,session,participant,
,,,,,,,,,,,,,,,,,,,,,,,,,,,,,,,,,,,,,,,,,,,,,,,,9,41.6945180893,,,,,,,,,,,,,,,,,,,,,,,,,,,,,,,,,,,,,,,,,,,,,,,,,,,,,,,,,,,,,,,2015_Jun_03_1157,59.9747477997,LearningTask,1,1001,
200,s,-200,,,,0,0,0,2,,,,,,,,,,,,,,,,,,,,,,,,,,,,,,,,,,,,,,,,,105.320233107,s,1,None,0,0.440666913986,0.75,0.506582975388,0.0386810302734,[],0,None,105.319926023,0.467897891998,0.45,0.51531791687,0.00103211402893,0.467897891998,1,s,108.322692156,,,,,,,,,,,,,,,,,,,,,,,,,,,,,,,,,,,,,,,,,,2015_Jun_03_1157,59.9747477997,LearningTask,1,1001,
-200,a,-200,,,,0,1,1,3,,,,,,,,,,,,,,,,,,,,,,,,,,,,,,,,,,,,,,,,,108.324407101,a,1,None,0,,0.28,0.514910936356,0.0233950614929,0.384335041046,1,a,111.325658083,0.384335041046,,,,,,,,,,,,,,,,,,,,,,,,,,,,,,,,,,,,,,,,,,,,,,,,,2015_Jun_03_1157,59.9747477997,LearningTask,1,1001,
-200,q,200,,,,0,2,2,1,,,,,,,,,,,,,,,,,,,,,,,,,,,,,,,,,,,,,,,,,111.326898098,q,1,None,0,,4.15,0.515332937241,0.00955009460449,0.300842046738,1,q,114.32921505,0.300842046738,,,,,,,,,,,,,,,,,,,,,,,,,,,,,,,,,,,,,,,,,,,,,,,,,2015_Jun_03_1157,59.9747477997,LearningTask,1,1001,
200,s,-200,,,,0,3,3,6,,,,,,,,,,,,,,,,,,,,,,,,,,,,,,,,,,,,,,,,,114.330554008,s,1,None,0,,0.42,0.515023946762,0.00116395950317,0.351131916046,1,s,117.332377195,0.351131916046,,,,,,,,,,,,,,,,,,,,,,,,,,,,,,,,,,,,,,,,,,,,,,,,,2015_Jun_03_1157,59.9747477997,LearningTask,1,1001,
200,w,200,,,,0,4,4,8,,,,,,,,,,,,,,,,,,,,,,,,,,,,,,,,,,,,,,,,,117.333733082,w,1,None,0,,1.89,0.515199899673,0.1775867939,0.401319980621,1,w,120.335762024,0.401319980621,,,,,,,,,,,,,,,,,,,,,,,,,,,,,,,,,,,,,,,,,,,,,,,,,2015_Jun_03_1157,59.9747477997,LearningTask,1,1001,
200,w,200,,,,0,5,5,4,,,,,,,,,,,,,,,,,,,,,,,,,,,,,,,,,,,,,,,,,123.339353085,w,1,None,0,,0.79,0.515266180038,0.0351209640503,0.334085226059,0,s,123.339094162,0.350822925568,1.08,0.516122817993,0.000968933105469,0.350822925568,1,w,126.342638016,,,,,,,,,,,,,,,,,,,,,,,,,,,,,,,,,,,,,,,,,,2015_Jun_03_1157,59.9747477997,LearningTask,1,1001,
-200,a,-200,,,,0,6,6,7,,,,,,,,,,,,,,,,,,,,,,,,,,,,,,,,,,,,,,,,,126.343847036,a,1,None,0,,1.9,0.515079975128,0.0170319080353,0.384202003479,1,a,129.346532106,0.384202003479,,,,,,,,,,,,,,,,,,,,,,,,,,,,,,,,,,,,,,,,,,,,,,,,,2015_Jun_03_1157,59.9747477997,LearningTask,1,1001,
-200,q,200,,,,0,7,7,5,,,,,,,,,,,,,,,,,,,,,,,,,,,,,,,,,,,,,,,,,129.347766161,q,1,None,0,,1.04,0.514560937881,0.0115768909454,0.367510080338,1,q,132.349224091,0.367510080338,,,,,,,,,,,,,,,,,,,,,,,,,,,,,,,,,,,,,,,,,,,,,,,,,2015_Jun_03_1157,59.9747477997,LearningTask,1,1001,
200,w,200,,,,0,8,8,0,,,,,,,,,,,,,,,,,,,,,,,,,,,,,,,,,,,,,,,,,132.350682974,w,1,None,0,,3.85,0.515025138855,0.000949144363403,0.384291887283,1,w,135.352730036,0.384291887283,,,,,,,,,,,,,,,,,,,,,,,,,,,,,,,,,,,,,,,,,,,,,,,,,2015_Jun_03_1157,59.9747477997,LearningTask,1,1001,
-200,q,200,,,,0,9,9,9,,,,,,,,,,,,,,,,,,,,,,,,,,,,,,,,,,,,,,,,,135.353898048,q,1,None,0,,0.6,0.515035867691,0.00120091438293,0.284208059311,1,q,138.356021166,0.284208059311,,,,,,,,,,,,,,,,,,,,,,,,,,,,,,,,,,,,,,,,,,,,,,,,,2015_Jun_03_1157,59.9747477997,LearningTask,1,1001,
,,,z,0,-200,,,,,,,,,,0,0,0,0,,,,,,,,,,,,,,,,,,,,,,,,,,,,,,,,155.559478045,,,,,,,,,,,,,,,,,,,,,go,diamondorange.gif,z,1,0.417217969894,None,0,0.00145411491394,0.515057086945,158.5621171,,,,,,,,,,,,,,,,,,,,,,,,,,,,,,,,2015_Jun_03_1157,59.9747477997,LearningTask,1,1001,
,,,z,0,-200,,,,,,,,,,0,1,1,0,,,,,,,,,,,,,,,,,,,,,,,,,,,,,,,,158.562549114,,,,,,,,,,,,,,,,,,,,,stop,squaregreen.gif,z,1,0.451255083084,None,0,0.00100302696228,0.515729904175,161.565363169,0.765610933304,,,,,,,,,,,,,,,,,,,,,,,,,,,,,,,2015_Jun_03_1157,59.9747477997,LearningTask,1,1001,
,,,z,0,-200,,,,,,,,,,1,0,2,0,,,,,,,,,,,,,,,,,,,,,,,,,,,,,,,,161.565765142,,,,,,,,,,,,,,,,,,,,,go,diamondorange.gif,z,1,0.450964927673,None,0,0.000967025756836,0.515691995621,164.568514109,,,,,,,,,,,,,,,,,,,,,,,,,,,,,,,,2015_Jun_03_1157,59.9747477997,LearningTask,1,1001,
,,,m,0,200,,,,,,,,,,1,1,3,1,,,,,,,,,,,,,,,,,,,,,,,,,,,,,,,,164.568929195,,,,,,,,,,,,,,,,,,,,,stop,invertedtrianglecyan.gif,m,1,0.467855930328,None,0,0.00102305412292,0.51579785347,167.571784973,0.765848875046,,,,,,,,,,,,,,,,,,,,,,,,,,,,,,,2015_Jun_03_1157,59.9747477997,LearningTask,1,1001,
,,,z,0,-200,,,,,,,,,,2,0,4,0,,,,,,,,,,,,,,,,,,,,,,,,,,,,,,,,167.572149038,,,,,,,,,,,,,,,,,,,,,stop,squaregreen.gif,None,0,,None,0,0.000977039337158,0.515967130661,170.57520318,0.766270160675,,,,,,,,,,,,,,,,,,,,,,,,,,,,,,,2015_Jun_03_1157,59.9747477997,LearningTask,1,1001,
,,,m,0,200,,,,,,,,,,2,1,5,1,,,,,,,,,,,,,,,,,,,,,,,,,,,,,,,,170.5755651,,,,,,,,,,,,,,,,,,,,,stop,hexagongray.gif,None,0,,None,0,0.000982999801636,0.516015052795,173.578626156,0.766652107239,,,,,,,,,,,,,,,,,,,,,,,,,,,,,,,2015_Jun_03_1157,59.9747477997,LearningTask,1,1001,
,,,m,0,200,,,,,,,,,,3,0,6,1,,,,,,,,,,,,,,,,,,,,,,,,,,,,,,,,173.579035044,,,,,,,,,,,,,,,,,,,,,stop,hexagongray.gif,None,0,,None,0,0.000976085662842,0.515894889832,176.582123995,0.766449928284,,,,,,,,,,,,,,,,,,,,,,,,,,,,,,,2015_Jun_03_1157,59.9747477997,LearningTask,1,1001,
,,,m,0,200,,,,,,,,,,3,1,7,1,,,,,,,,,,,,,,,,,,,,,,,,,,,,,,,,176.582633018,,,,,,,,,,,,,,,,,,,,,go,trianglemagenta.gif,m,1,0.784973144531,None,0,0.000982999801636,0.515416145325,179.58517909,,,,,,,,,,,,,,,,,,,,,,,,,,,,,,,,2015_Jun_03_1157,59.9747477997,LearningTask,1,1001,
,,,m,0,200,,,,,,,,,,4,0,8,1,,,,,,,,,,,,,,,,,,,,,,,,,,,,,,,,179.585540056,,,,,,,,,,,,,,,,,,,,,stop,squaregreen.gif,None,0,,None,0,0.0010130405426,0.516179084778,182.588750124,0.766536235809,,,,,,,,,,,,,,,,,,,,,,,,,,,,,,,2015_Jun_03_1157,59.9747477997,LearningTask,1,1001,
,,,z,0,-200,,,,,,,,,,4,1,9,0,,,,,,,,,,,,,,,,,,,,,,,,,,,,,,,,182.589109182,,,,,,,,,,,,,,,,,,,,,go,circleblue.gif,z,1,0.868383169174,None,0,0.000964879989624,0.515590906143,185.591722965,,,,,,,,,,,,,,,,,,,,,,,,,,,,,,,,2015_Jun_03_1157,59.9747477997,LearningTask,1,1001,
,,,,,,,,,,,,,,,,,,,,,,,,,,,,,,,,,,,,,,,,,,,,,,,,,,,,,,,,,,,,,,,,,,,,,,,,,,,,,,,,,,space,7.95017814636,,,,,,,,,,,,,,,,,,,,,,,,,,,,,2015_Jun_03_1157,59.9747477997,LearningTask,1,1001,
,,,,,,,,,,,,,,,,,,,,,,,,,,,,,,,,,,,,,,,,,,,,,,,,9,10.7119069099,,,,,,,,,,,,,,,,,,,,,,,,,,,,,,,,,,,,,,,,,,,,,,,,,,,,,,,,,,,,,,,2015_Jun_03_1157,59.9747477997,LearningTask,1,1001,
200,w,200,,,,,,,,,,,,,,,,,0,0,0,0,0,0,0,0,,,,,,,,,,,,,,,,,,,,,,,,204.444494009,w,1,None,0,,,,,,,,,0.417718172073,,,,,,,,,,,,,,,,,,,,,1.23,0.501376867294,0.00098991394043,0.417718172073,1,w,207.450510025,,,,,,,,,,,,,,,,,,,,,,2015_Jun_03_1157,59.9747477997,LearningTask,1,1001,
200,w,200,,,,,,,,,,,,,,,,,0,0,0,0,0,1,1,0,,,,,,,,,,,,,,,,,,,,,,,,207.452094078,w,1,None,0,,,,,,,,,0.351207017899,,,,,,,,,,,,,,,,,,,,,1.76,0.513812065125,0.000930070877075,0.351207017899,1,w,210.45343399,,,,,,,,,,,,,,,,,,,,,,2015_Jun_03_1157,59.9747477997,LearningTask,1,1001,
-200,a,-200,,,,,,,,,,,,,,,,,0,0,0,0,0,2,2,3,,,,,,,,,,,,,,,,,,,,,,,,210.454974174,a,1,None,0,,,,,,,,,0.417708158493,,,,,,,,,,,,,,,,,,,,,0.47,0.514253854752,0.000916957855225,0.417708158493,1,a,213.456794024,,,,,,,,,,,,,,,,,,,,,,2015_Jun_03_1157,59.9747477997,LearningTask,1,1001,
-200,a,-200,,,,,,,,,,,,,,,,,0,0,0,0,0,3,3,3,,,,,,,,,,,,,,,,,,,,,,,,213.458295107,a,1,None,0,,,,,,,,,0.400941133499,,,,,,,,,,,,,,,,,,,,,1.09,0.514312982559,0.000927925109863,0.400941133499,1,a,216.460235119,,,,,,,,,,,,,,,,,,,,,,2015_Jun_03_1157,59.9747477997,LearningTask,1,1001,
-200,a,-200,,,,,,,,,,,,,,,,,0,0,0,0,1,0,4,3,,,,,,,,,,,,,,,,,,,,,,,,216.461687088,a,1,None,0,,,,,,,,,0.434321165085,,,,,,,,,,,,,,,,,,,,,1.14,0.514578104019,0.000960111618042,0.434321165085,1,a,219.463716984,,,,,,,,,,,,,,,,,,,,,,2015_Jun_03_1157,59.9747477997,LearningTask,1,1001,
200,s,-200,,,,,,,,,,,,,,,,,0,0,0,0,1,1,5,2,,,,,,,,,,,,,,,,,,,,,,,,219.465293169,s,1,None,0,,,,,,,,,0.383967876434,,,,,,,,,,,,,,,,,,,,,3.82,0.514326095581,0.0117080211639,0.383967876434,1,s,222.466842175,,,,,,,,,,,,,,,,,,,,,,2015_Jun_03_1157,59.9747477997,LearningTask,1,1001,
200,s,-200,,,,,,,,,,,,,,,,,0,0,0,0,1,2,6,2,,,,,,,,,,,,,,,,,,,,,,,,222.468434095,s,1,None,0,,,,,,,,,0.384236812592,,,,,,,,,,,,,,,,,,,,,4.14,0.514466047287,0.000936985015869,0.384236812592,1,s,225.470546007,,,,,,,,,,,,,,,,,,,,,,2015_Jun_03_1157,59.9747477997,LearningTask,1,1001,
200,w,200,,,,,,,,,,,,,,,,,0,0,0,0,1,3,7,0,,,,,,,,,,,,,,,,,,,,,,,,225.472108126,w,1,w,1,0.156266212463,,,,,,,,0.418078899384,,,,,,,,,,,,,,,,,,,,,0.68,0.513916015625,0.00098705291748,0.418078899384,1,w,228.473637104,,,,,,,,,,,,,,,,,,,,,,2015_Jun_03_1157,59.9747477997,LearningTask,1,1001,
-200,a,-200,,,,,,,,,,,,,,,,,0,0,0,0,2,0,8,3,,,,,,,,,,,,,,,,,,,,,,,,228.475252151,a,1,None,0,,,,,,,,,0.384225845337,,,,,,,,,,,,,,,,,,,,,3.85,0.514229059219,0.000933885574341,0.384225845337,1,a,231.477045059,,,,,,,,,,,,,,,,,,,,,,2015_Jun_03_1157,59.9747477997,LearningTask,1,1001,
200,w,200,,,,,,,,,,,,,,,,,0,0,0,0,2,1,9,0,,,,,,,,,,,,,,,,,,,,,,,,231.478720188,w,1,None,0,,,,,,,,,0.318032979965,,,,,,,,,,,,,,,,,,,,,4.11,0.513898849487,0.000946998596191,0.318032979965,1,w,234.480938196,,,,,,,,,,,,,,,,,,,,,,2015_Jun_03_1157,59.9747477997,LearningTask,1,1001,
-200,q,200,,,,,,,,,,,,,,,,,0,0,0,0,2,2,10,1,,,,,,,,,,,,,,,,,,,,,,,,234.482458115,q,1,None,0,,,,,,,,,0.317495107651,,,,,,,,,,,,,,,,,,,,,0.88,0.51388001442,0.000993013381958,0.317495107651,1,q,237.484044075,,,,,,,,,,,,,,,,,,,,,,2015_Jun_03_1157,59.9747477997,LearningTask,1,1001,
-200,q,200,,,,,,,,,,,,,,,,,0,0,0,0,2,3,11,1,,,,,,,,,,,,,,,,,,,,,,,,237.485774994,q,1,None,0,,,,,,,,,0.384432792664,,,,,,,,,,,,,,,,,,,,,0.28,0.513720035553,0.000939846038818,0.384432792664,1,q,240.487071037,,,,,,,,,,,,,,,,,,,,,,2015_Jun_03_1157,59.9747477997,LearningTask,1,1001,
-200,q,200,,,,,,,,,,,,,,,,,0,0,0,0,3,0,12,1,,,,,,,,,,,,,,,,,,,,,,,,240.48864913,q,1,None,0,,,,,,,,,0.300682067871,,,,,,,,,,,,,,,,,,,,,0.39,0.514601945877,0.000948905944824,0.300682067871,1,q,243.490507126,,,,,,,,,,,,,,,,,,,,,,2015_Jun_03_1157,59.9747477997,LearningTask,1,1001,
200,s,-200,,,,,,,,,,,,,,,,,0,0,0,0,3,1,13,2,,,,,,,,,,,,,,,,,,,,,,,,243.492256165,s,1,None,0,,,,,,,,,0.33422088623,,,,,,,,,,,,,,,,,,,,,0.51,0.514157056808,0.000992059707642,0.33422088623,1,s,246.493448973,,,,,,,,,,,,,,,,,,,,,,2015_Jun_03_1157,59.9747477997,LearningTask,1,1001,
-200,a,-200,,,,,,,,,,,,,,,,,0,0,0,0,3,2,14,3,,,,,,,,,,,,,,,,,,,,,,,,246.495021105,a,1,None,0,,,,,,,,,0.3340280056,,,,,,,,,,,,,,,,,,,,,0.87,0.514717817307,0.000883817672729,0.3340280056,1,a,249.49703002,,,,,,,,,,,,,,,,,,,,,,2015_Jun_03_1157,59.9747477997,LearningTask,1,1001,
-200,q,200,,,,,,,,,,,,,,,,,0,0,0,0,3,3,15,1,,,,,,,,,,,,,,,,,,,,,,,,249.498664141,q,1,None,0,,,,,,,,,0.334316015244,,,,,,,,,,,,,,,,,,,,,4.04,0.514230966568,0.00096607208252,0.334316015244,1,q,252.500389099,,,,,,,,,,,,,,,,,,,,,,2015_Jun_03_1157,59.9747477997,LearningTask,1,1001,
-200,q,200,,,,,,,,,,,,,,,,,0,0,0,0,4,0,16,1,,,,,,,,,,,,,,,,,,,,,,,,252.501857996,q,1,None,0,,,,,,,,,0.350663900375,,,,,,,,,,,,,,,,,,,,,0.26,0.514654159546,0.00103402137756,0.350663900375,1,q,255.504091978,,,,,,,,,,,,,,,,,,,,,,2015_Jun_03_1157,59.9747477997,LearningTask,1,1001,
-200,q,200,,,,,,,,,,,,,,,,,0,0,0,0,4,1,17,1,,,,,,,,,,,,,,,,,,,,,,,,255.505671024,q,1,None,0,,,,,,,,,0.334610939026,,,,,,,,,,,,,,,,,,,,,1.9,0.514117002487,0.000946998596191,0.334610939026,1,q,258.508002043,,,,,,,,,,,,,,,,,,,,,,2015_Jun_03_1157,59.9747477997,LearningTask,1,1001,
200,w,200,,,,,,,,,,,,,,,,,0,0,0,0,4,2,18,0,,,,,,,,,,,,,,,,,,,,,,,,258.509541988,w,1,None,0,,,,,,,,,0.333953857422,,,,,,,,,,,,,,,,,,,,,1.93,0.51370215416,0.00128817558289,0.333953857422,1,w,261.51048708,,,,,,,,,,,,,,,,,,,,,,2015_Jun_03_1157,59.9747477997,LearningTask,1,1001,
-200,a,-200,,,,,,,,,,,,,,,,,0,0,0,0,4,3,19,3,,,,,,,,,,,,,,,,,,,,,,,,264.514536142,a,1,None,0,0.00932002067566,,,,,,,,0.300630092621,,,,,,,,,,,,,,,,,,,,,1.8,0.514080047607,0.000983953475952,0.301325082779,0,q,264.514237165,1.77,0.515192985535,0.00101494789124,0.300630092621,1,a,267.517657042,,,,,,,,,,,,,,,2015_Jun_03_1157,59.9747477997,LearningTask,1,1001,
-200,a,-200,,,,,,,,,,,,,,,,,0,0,0,0,5,0,20,3,,,,,,,,,,,,,,,,,,,,,,,,267.519124985,a,1,None,0,,,,,,,,,0.401145935059,,,,,,,,,,,,,,,,,,,,,1.08,0.5139939785,0.00109887123108,0.401145935059,1,a,270.521121979,,,,,,,,,,,,,,,,,,,,,,2015_Jun_03_1157,59.9747477997,LearningTask,1,1001,
-200,a,-200,,,,,,,,,,,,,,,,,0,0,0,0,5,1,21,3,,,,,,,,,,,,,,,,,,,,,,,,270.522695065,a,1,None,0,,,,,,,,,0.367220163345,,,,,,,,,,,,,,,,,,,,,1.06,0.513953924179,0.000885963439941,0.367220163345,1,a,273.523905993,,,,,,,,,,,,,,,,,,,,,,2015_Jun_03_1157,59.9747477997,LearningTask,1,1001,
200,s,-200,,,,,,,,,,,,,,,,,0,0,0,0,5,2,22,2,,,,,,,,,,,,,,,,,,,,,,,,273.525490046,s,1,None,0,,,,,,,,,0.51788520813,,,,,,,,,,,,,,,,,,,,,2.16,0.514200925827,0.000936031341553,0.51788520813,1,s,276.527325153,,,,,,,,,,,,,,,,,,,,,,2015_Jun_03_1157,59.9747477997,LearningTask,1,1001,
-200,a,-200,,,,,,,,,,,,,,,,,0,0,0,0,5,3,23,3,,,,,,,,,,,,,,,,,,,,,,,,276.528782129,a,1,None,0,,,,,,,,,0.384339094162,,,,,,,,,,,,,,,,,,,,,0.95,0.514261007309,0.0010039806366,0.384339094162,1,a,279.530739069,,,,,,,,,,,,,,,,,,,,,,2015_Jun_03_1157,59.9747477997,LearningTask,1,1001,
-200,a,-200,,,,,,,,,,,,,,,,,0,0,0,0,6,0,24,3,,,,,,,,,,,,,,,,,,,,,,,,279.532314062,a,1,None,0,,,,,,,,,0.36780500412,,,,,,,,,,,,,,,,,,,,,1.25,0.514303922653,0.00100994110107,0.36780500412,1,a,282.534424067,,,,,,,,,,,,,,,,,,,,,,2015_Jun_03_1157,59.9747477997,LearningTask,1,1001,
200,s,-200,,,,,,,,,,,,,,,,,0,0,0,0,6,1,25,2,,,,,,,,,,,,,,,,,,,,,,,,282.536161184,s,1,None,0,,,,,,,,,0.350306034088,,,,,,,,,,,,,,,,,,,,,2.02,0.513835191727,0.000967979431152,0.350306034088,1,s,285.537245989,,,,,,,,,,,,,,,,,,,,,,2015_Jun_03_1157,59.9747477997,LearningTask,1,1001,
200,s,-200,,,,,,,,,,,,,,,,,0,0,0,0,6,2,26,2,,,,,,,,,,,,,,,,,,,,,,,,285.538805962,s,1,None,0,,,,,,,,,0.367999076843,,,,,,,,,,,,,,,,,,,,,4.09,0.514315128326,0.000944137573242,0.367999076843,1,s,288.540718079,,,,,,,,,,,,,,,,,,,,,,2015_Jun_03_1157,59.9747477997,LearningTask,1,1001,
200,w,200,,,,,,,,,,,,,,,,,0,0,0,0,6,3,27,0,,,,,,,,,,,,,,,,,,,,,,,,288.542203188,w,1,None,0,,,,,,,,,0.401094198227,,,,,,,,,,,,,,,,,,,,,1.17,0.51429104805,0.000958204269409,0.401094198227,1,w,291.544206142,,,,,,,,,,,,,,,,,,,,,,2015_Jun_03_1157,59.9747477997,LearningTask,1,1001,
200,s,-200,,,,,,,,,,,,,,,,,0,0,0,0,7,0,28,2,,,,,,,,,,,,,,,,,,,,,,,,291.545718193,s,1,None,0,,,,,,,,,0.350919008255,,,,,,,,,,,,,,,,,,,,,0.9,0.514350175858,0.00098705291748,0.350919008255,1,s,294.54739809,,,,,,,,,,,,,,,,,,,,,,2015_Jun_03_1157,59.9747477997,LearningTask,1,1001,
200,w,200,,,,,,,,,,,,,,,,,0,0,0,0,7,1,29,0,,,,,,,,,,,,,,,,,,,,,,,,294.548985004,w,1,None,0,,,,,,,,,0.401139974594,,,,,,,,,,,,,,,,,,,,,1.88,0.514227867126,0.000888824462891,0.401139974594,1,w,297.55075717,,,,,,,,,,,,,,,,,,,,,,2015_Jun_03_1157,59.9747477997,LearningTask,1,1001,
200,w,200,,,,,,,,,,,,,,,,,0,0,0,0,7,2,30,0,,,,,,,,,,,,,,,,,,,,,,,,300.554476976,w,1,None,0,,,,,,,,,0.43452000618,,,,,,,,,,,,,,,,,,,,,3.8,0.514072179794,0.000960111618042,0.38450884819,0,s,300.554155111,4.15,0.515449047089,0.000993967056274,0.43452000618,1,w,303.557780981,,,,,,,,,,,,,,,2015_Jun_03_1157,59.9747477997,LearningTask,1,1001,
-200,q,200,,,,,,,,,,,,,,,,,0,0,0,0,7,3,31,1,,,,,,,,,,,,,,,,,,,,,,,,303.559436083,q,1,None,0,,,,,,,,,0.384150028229,,,,,,,,,,,,,,,,,,,,,1.91,0.514342069626,0.000998973846436,0.384150028229,1,q,306.560974121,,,,,,,,,,,,,,,,,,,,,,2015_Jun_03_1157,59.9747477997,LearningTask,1,1001,
-200,q,200,,,,,,,,,,,,,,,,,0,0,0,0,8,0,32,1,,,,,,,,,,,,,,,,,,,,,,,,306.562512159,q,1,None,0,,,,,,,,,0.350599050522,,,,,,,,,,,,,,,,,,,,,1.09,0.51452589035,0.000974893569946,0.350599050522,1,q,309.564465046,,,,,,,,,,,,,,,,,,,,,,2015_Jun_03_1157,59.9747477997,LearningTask,1,1001,
-200,a,-200,,,,,,,,,,,,,,,,,0,0,0,0,8,1,33,3,,,,,,,,,,,,,,,,,,,,,,,,309.56610918,a,1,None,0,,,,,,,,,0.501353979111,,,,,,,,,,,,,,,,,,,,,0.29,0.513859987259,0.000895977020264,0.501353979111,1,a,312.56763196,,,,,,,,,,,,,,,,,,,,,,2015_Jun_03_1157,59.9747477997,LearningTask,1,1001,
-200,q,200,,,,,,,,,,,,,,,,,0,0,0,0,8,2,34,1,,,,,,,,,,,,,,,,,,,,,,,,312.569267988,q,1,None,0,,,,,,,,,0.350901842117,,,,,,,,,,,,,,,,,,,,,4.14,0.514502048492,0.000952005386353,0.350901842117,1,q,315.570940971,,,,,,,,,,,,,,,,,,,,,,2015_Jun_03_1157,59.9747477997,LearningTask,1,1001,
-200,a,-200,,,,,,,,,,,,,,,,,0,0,0,0,8,3,35,3,,,,,,,,,,,,,,,,,,,,,,,,315.572566986,a,1,None,0,,,,,,,,,0.400779008865,,,,,,,,,,,,,,,,,,,,,0.62,0.514272928238,0.000935077667236,0.400779008865,1,a,318.574221134,,,,,,,,,,,,,,,,,,,,,,2015_Jun_03_1157,59.9747477997,LearningTask,1,1001,
200,s,-200,,,,,,,,,,,,,,,,,0,0,0,0,9,0,36,2,,,,,,,,,,,,,,,,,,,,,,,,318.575782061,s,1,None,0,,,,,,,,,0.334256887436,,,,,,,,,,,,,,,,,,,,,1.95,0.514401912689,0.00105381011963,0.334256887436,1,s,321.577989101,,,,,,,,,,,,,,,,,,,,,,2015_Jun_03_1157,59.9747477997,LearningTask,1,1001,
200,w,200,,,,,,,,,,,,,,,,,0,0,0,0,9,1,37,0,,,,,,,,,,,,,,,,,,,,,,,,321.579596996,w,1,None,0,,,,,,,,,0.350733995438,,,,,,,,,,,,,,,,,,,,,1.97,0.513999938965,0.00089693069458,0.350733995438,1,w,324.58119607,,,,,,,,,,,,,,,,,,,,,,2015_Jun_03_1157,59.9747477997,LearningTask,1,1001,
200,s,-200,,,,,,,,,,,,,,,,,0,0,0,0,9,2,38,2,,,,,,,,,,,,,,,,,,,,,,,,324.582817078,s,1,None,0,,,,,,,,,0.31733083725,,,,,,,,,,,,,,,,,,,,,2.05,0.51437997818,0.000959873199463,0.31733083725,1,s,327.584393978,,,,,,,,,,,,,,,,,,,,,,2015_Jun_03_1157,59.9747477997,LearningTask,1,1001,
200,w,200,,,,,,,,,,,,,,,,,0,0,0,0,9,3,39,0,,,,,,,,,,,,,,,,,,,,,,,,327.586115122,w,1,None,0,,,,,,,,,0.467673063278,,,,,,,,,,,,,,,,,,,,,0.35,0.514026165009,0.000939130783081,0.467673063278,1,w,330.587795973,,,,,,,,,,,,,,,,,,,,,,2015_Jun_03_1157,59.9747477997,LearningTask,1,1001,
-200,a,-200,,,,,,,,,,,,,,,,,0,0,0,0,10,0,40,3,,,,,,,,,,,,,,,,,,,,,,,,330.589347124,a,1,None,0,,,,,,,,,0.383992910385,,,,,,,,,,,,,,,,,,,,,1.13,0.514419078827,0.00101709365845,0.383992910385,1,a,333.591274977,,,,,,,,,,,,,,,,,,,,,,2015_Jun_03_1157,59.9747477997,LearningTask,1,1001,
200,w,200,,,,,,,,,,,,,,,,,0,0,0,0,10,1,41,0,,,,,,,,,,,,,,,,,,,,,,,,333.592872143,w,1,None,0,,,,,,,,,0.400958061218,,,,,,,,,,,,,,,,,,,,,0.48,0.513921022415,0.000921964645386,0.400958061218,1,w,336.594354153,,,,,,,,,,,,,,,,,,,,,,2015_Jun_03_1157,59.9747477997,LearningTask,1,1001,
200,s,-200,,,,,,,,,,,,,,,,,0,0,0,0,10,2,42,2,,,,,,,,,,,,,,,,,,,,,,,,336.595955133,s,1,None,0,,,,,,,,,0.350715875626,,,,,,,,,,,,,,,,,,,,,1.05,0.514633893967,0.000952005386353,0.350715875626,1,s,339.597893,,,,,,,,,,,,,,,,,,,,,,2015_Jun_03_1157,59.9747477997,LearningTask,1,1001,
200,s,-200,,,,,,,,,,,,,,,,,0,0,0,0,10,3,43,2,,,,,,,,,,,,,,,,,,,,,,,,339.59953618,s,1,None,0,,,,,,,,,0.3341319561,,,,,,,,,,,,,,,,,,,,,1.87,0.514132976532,0.00097393989563,0.3341319561,1,s,342.601057053,,,,,,,,,,,,,,,,,,,,,,2015_Jun_03_1157,59.9747477997,LearningTask,1,1001,
-200,a,-200,,,,,,,,,,,,,,,,,0,0,0,0,11,0,44,3,,,,,,,,,,,,,,,,,,,,,,,,342.602643967,a,1,None,0,,,,,,,,,0.450710058212,,,,,,,,,,,,,,,,,,,,,4.17,0.514641046524,0.00104713439941,0.450710058212,1,a,345.60461998,,,,,,,,,,,,,,,,,,,,,,2015_Jun_03_1157,59.9747477997,LearningTask,1,1001,
-200,a,-200,,,,,,,,,,,,,,,,,0,0,0,0,11,1,45,3,,,,,,,,,,,,,,,,,,,,,,,,345.606387138,a,1,None,0,,,,,,,,,0.384608983994,,,,,,,,,,,,,,,,,,,,,0.41,0.513782978058,0.00129008293152,0.384608983994,1,a,348.607774019,,,,,,,,,,,,,,,,,,,,,,2015_Jun_03_1157,59.9747477997,LearningTask,1,1001,
-200,q,200,,,,,,,,,,,,,,,,,0,0,0,0,11,2,46,1,,,,,,,,,,,,,,,,,,,,,,,,348.609325171,q,1,None,0,,,,,,,,,0.384380817413,,,,,,,,,,,,,,,,,,,,,0.38,0.514147996902,0.000962018966675,0.384380817413,1,q,351.611289978,,,,,,,,,,,,,,,,,,,,,,2015_Jun_03_1157,59.9747477997,LearningTask,1,1001,
-200,q,200,,,,,,,,,,,,,,,,,0,0,0,0,11,3,47,1,,,,,,,,,,,,,,,,,,,,,,,,351.613018036,q,1,None,0,,,,,,,,,0.350857973099,,,,,,,,,,,,,,,,,,,,,3.93,0.514064073563,0.000961065292358,0.350857973099,1,q,354.614701986,,,,,,,,,,,,,,,,,,,,,,2015_Jun_03_1157,59.9747477997,LearningTask,1,1001,
200,w,200,,,,,,,,,,,,,,,,,0,0,0,0,12,0,48,0,,,,,,,,,,,,,,,,,,,,,,,,354.616348982,w,1,None,0,,,,,,,,,0.417428016663,,,,,,,,,,,,,,,,,,,,,0.94,0.514304876328,0.00101590156555,0.417428016663,1,w,357.618029118,,,,,,,,,,,,,,,,,,,,,,2015_Jun_03_1157,59.9747477997,LearningTask,1,1001,
200,w,200,,,,,,,,,,,,,,,,,0,0,0,0,12,1,49,0,,,,,,,,,,,,,,,,,,,,,,,,357.619709969,w,1,None,0,,,,,,,,,0.41810798645,,,,,,,,,,,,,,,,,,,,,1.94,0.514114141464,0.00095796585083,0.41810798645,1,w,360.621123075,,,,,,,,,,,,,,,,,,,,,,2015_Jun_03_1157,59.9747477997,LearningTask,1,1001,
-200,q,200,,,,,,,,,,,,,,,,,0,0,0,0,12,2,50,1,,,,,,,,,,,,,,,,,,,,,,,,360.622783184,q,1,None,0,,,,,,,,,0.334025144577,,,,,,,,,,,,,,,,,,,,,4.23,0.514614105225,0.000978231430054,0.334025144577,1,q,363.624889135,,,,,,,,,,,,,,,,,,,,,,2015_Jun_03_1157,59.9747477997,LearningTask,1,1001,
-200,q,200,,,,,,,,,,,,,,,,,0,0,0,0,12,3,51,1,,,,,,,,,,,,,,,,,,,,,,,,363.626499176,q,1,None,0,,,,,,,,,0.367527961731,,,,,,,,,,,,,,,,,,,,,4.11,0.514034032822,0.000924110412598,0.367527961731,1,q,366.627915144,,,,,,,,,,,,,,,,,,,,,,2015_Jun_03_1157,59.9747477997,LearningTask,1,1001,
200,w,200,,,,,,,,,,,,,,,,,0,0,0,0,13,0,52,0,,,,,,,,,,,,,,,,,,,,,,,,366.629477024,w,1,None,0,,,,,,,,,0.433771848679,,,,,,,,,,,,,,,,,,,,,3.79,0.514303207397,0.000910997390747,0.433771848679,1,w,369.631437063,,,,,,,,,,,,,,,,,,,,,,2015_Jun_03_1157,59.9747477997,LearningTask,1,1001,
200,s,-200,,,,,,,,,,,,,,,,,0,0,0,0,13,1,53,2,,,,,,,,,,,,,,,,,,,,,,,,369.633068085,s,1,None,0,,,,,,,,,0.501190900803,,,,,,,,,,,,,,,,,,,,,3.78,0.514049053192,0.00105595588684,0.501190900803,1,s,372.634443045,,,,,,,,,,,,,,,,,,,,,,2015_Jun_03_1157,59.9747477997,LearningTask,1,1001,
200,s,-200,,,,,,,,,,,,,,,,,0,0,0,0,13,2,54,2,,,,,,,,,,,,,,,,,,,,,,,,372.636049986,s,1,None,0,,,,,,,,,0.38464307785,,,,,,,,,,,,,,,,,,,,,0.78,0.514506101608,0.00095009803772,0.38464307785,1,s,375.638237,,,,,,,,,,,,,,,,,,,,,,2015_Jun_03_1157,59.9747477997,LearningTask,1,1001,
-200,q,200,,,,,,,,,,,,,,,,,0,0,0,0,13,3,55,1,,,,,,,,,,,,,,,,,,,,,,,,375.639830112,q,1,None,0,,,,,,,,,0.317897796631,,,,,,,,,,,,,,,,,,,,,0.97,0.513961076736,0.000988960266113,0.317897796631,1,q,378.641129971,,,,,,,,,,,,,,,,,,,,,,2015_Jun_03_1157,59.9747477997,LearningTask,1,1001,
200,w,200,,,,,,,,,,,,,,,,,0,0,0,0,14,0,56,0,,,,,,,,,,,,,,,,,,,,,,,,378.642937183,w,1,None,0,,,,,,,,,0.401135921478,,,,,,,,,,,,,,,,,,,,,1.93,0.514500141144,0.000895977020264,0.401135921478,1,w,381.644733191,,,,,,,,,,,,,,,,,,,,,,2015_Jun_03_1157,59.9747477997,LearningTask,1,1001,
-200,q,200,,,,,,,,,,,,,,,,,0,0,0,0,14,1,57,1,,,,,,,,,,,,,,,,,,,,,,,,381.646349192,q,1,None,0,,,,,,,,,0.300533056259,,,,,,,,,,,,,,,,,,,,,2.16,0.514538049698,0.000931978225708,0.300533056259,1,q,384.648003101,,,,,,,,,,,,,,,,,,,,,,2015_Jun_03_1157,59.9747477997,LearningTask,1,1001,
-200,a,-200,,,,,,,,,,,,,,,,,0,0,0,0,14,2,58,3,,,,,,,,,,,,,,,,,,,,,,,,384.649410963,a,1,None,0,,,,,,,,,0.50123000145,,,,,,,,,,,,,,,,,,,,,0.26,0.514419794083,0.000952959060669,0.50123000145,1,a,387.651638031,,,,,,,,,,,,,,,,,,,,,,2015_Jun_03_1157,59.9747477997,LearningTask,1,1001,
200,w,200,,,,,,,,,,,,,,,,,0,0,0,0,14,3,59,0,,,,,,,,,,,,,,,,,,,,,,,,387.653180122,w,1,None,0,,,,,,,,,0.384271860123,,,,,,,,,,,,,,,,,,,,,1.77,0.514187097549,0.00107598304749,0.384271860123,1,w,390.655044079,,,,,,,,,,,,,,,,,,,,,,2015_Jun_03_1157,59.9747477997,LearningTask,1,1001,
200,w,200,,,,,,,,,,,,,,,,,0,0,0,0,15,0,60,0,,,,,,,,,,,,,,,,,,,,,,,,390.656638145,w,1,None,0,,,,,,,,,0.350893974304,,,,,,,,,,,,,,,,,,,,,0.79,0.514198064804,0.000903129577637,0.350893974304,1,w,393.657963037,,,,,,,,,,,,,,,,,,,,,,2015_Jun_03_1157,59.9747477997,LearningTask,1,1001,
-200,a,-200,,,,,,,,,,,,,,,,,0,0,0,0,15,1,61,3,,,,,,,,,,,,,,,,,,,,,,,,393.659579039,a,1,None,0,,,,,,,,,0.417350053787,,,,,,,,,,,,,,,,,,,,,0.65,0.51477098465,0.000937938690186,0.417350053787,1,a,396.661303043,,,,,,,,,,,,,,,,,,,,,,2015_Jun_03_1157,59.9747477997,LearningTask,1,1001,
200,w,200,,,,,,,,,,,,,,,,,0,0,0,0,15,2,62,0,,,,,,,,,,,,,,,,,,,,,,,,396.662772179,w,1,None,0,,,,,,,,,0.367637872696,,,,,,,,,,,,,,,,,,,,,0.32,0.514393806458,0.000962972640991,0.367637872696,1,w,399.665124178,,,,,,,,,,,,,,,,,,,,,,2015_Jun_03_1157,59.9747477997,LearningTask,1,1001,
200,s,-200,,,,,,,,,,,,,,,,,0,0,0,0,15,3,63,2,,,,,,,,,,,,,,,,,,,,,,,,399.666651964,s,1,None,0,,,,,,,,,0.35067486763,,,,,,,,,,,,,,,,,,,,,0.84,0.514101028442,0.0012218952179,0.35067486763,1,s,402.667951107,,,,,,,,,,,,,,,,,,,,,,2015_Jun_03_1157,59.9747477997,LearningTask,1,1001,
-200,q,200,,,,,,,,,,,,,,,,,0,0,0,0,16,0,64,1,,,,,,,,,,,,,,,,,,,,,,,,402.669665098,q,1,None,0,,,,,,,,,0.300622224808,,,,,,,,,,,,,,,,,,,,,1.77,0.514485836029,0.00088906288147,0.300622224808,1,q,405.671434164,,,,,,,,,,,,,,,,,,,,,,2015_Jun_03_1157,59.9747477997,LearningTask,1,1001,
200,w,200,,,,,,,,,,,,,,,,,0,0,0,0,16,1,65,0,,,,,,,,,,,,,,,,,,,,,,,,408.675057173,w,1,None,0,,,,,,,,,0.31779384613,,,,,,,,,,,,,,,,,,,,,0.7,0.514359951019,0.000946044921875,0.317414045334,0,s,408.674745083,0.44,0.515791893005,0.000946044921875,0.31779384613,1,w,411.678467989,,,,,,,,,,,,,,,2015_Jun_03_1157,59.9747477997,LearningTask,1,1001,
200,w,200,,,,,,,,,,,,,,,,,0,0,0,0,16,2,66,0,,,,,,,,,,,,,,,,,,,,,,,,411.680034161,w,1,None,0,,,,,,,,,0.351413965225,,,,,,,,,,,,,,,,,,,,,0.66,0.513974905014,0.00106382369995,0.351413965225,1,w,414.681480169,,,,,,,,,,,,,,,,,,,,,,2015_Jun_03_1157,59.9747477997,LearningTask,1,1001,
-200,a,-200,,,,,,,,,,,,,,,,,0,0,0,0,16,3,67,3,,,,,,,,,,,,,,,,,,,,,,,,414.683207989,a,1,None,0,,,,,,,,,0.317716121674,,,,,,,,,,,,,,,,,,,,,1.12,0.514433860779,0.000888824462891,0.317716121674,1,a,417.684961081,,,,,,,,,,,,,,,,,,,,,,2015_Jun_03_1157,59.9747477997,LearningTask,1,1001,
-200,q,200,,,,,,,,,,,,,,,,,0,0,0,0,17,0,68,1,,,,,,,,,,,,,,,,,,,,,,,,417.686572075,q,1,None,0,,,,,,,,,0.384015083313,,,,,,,,,,,,,,,,,,,,,0.78,0.514626979828,0.000931978225708,0.384015083313,1,q,420.688410997,,,,,,,,,,,,,,,,,,,,,,2015_Jun_03_1157,59.9747477997,LearningTask,1,1001,
-200,q,200,,,,,,,,,,,,,,,,,0,0,0,0,17,1,69,1,,,,,,,,,,,,,,,,,,,,,,,,420.689932108,q,1,None,0,,,,,,,,,0.334213018417,,,,,,,,,,,,,,,,,,,,,1.25,0.514158010483,0.000943899154663,0.334213018417,1,q,423.692058086,,,,,,,,,,,,,,,,,,,,,,2015_Jun_03_1157,59.9747477997,LearningTask,1,1001,
-200,a,-200,,,,,,,,,,,,,,,,,0,0,0,0,17,2,70,3,,,,,,,,,,,,,,,,,,,,,,,,423.693711042,a,1,None,0,,,,,,,,,0.417679071426,,,,,,,,,,,,,,,,,,,,,1.81,0.513888835907,0.00095796585083,0.417679071426,1,a,426.695218086,,,,,,,,,,,,,,,,,,,,,,2015_Jun_03_1157,59.9747477997,LearningTask,1,1001,
200,s,-200,,,,,,,,,,,,,,,,,0,0,0,0,17,3,71,2,,,,,,,,,,,,,,,,,,,,,,,,426.696846962,s,1,None,0,,,,,,,,,0.56755399704,,,,,,,,,,,,,,,,,,,,,2.07,0.514288187027,0.000900030136108,0.56755399704,1,s,429.698261976,,,,,,,,,,,,,,,,,,,,,,2015_Jun_03_1157,59.9747477997,LearningTask,1,1001,
200,s,-200,,,,,,,,,,,,,,,,,0,0,0,0,18,0,72,2,,,,,,,,,,,,,,,,,,,,,,,,429.699774981,s,1,None,0,,,,,,,,,0.333875894547,,,,,,,,,,,,,,,,,,,,,2.16,0.514862060547,0.000937938690186,0.333875894547,1,s,432.701815128,,,,,,,,,,,,,,,,,,,,,,2015_Jun_03_1157,59.9747477997,LearningTask,1,1001,
200,w,200,,,,,,,,,,,,,,,,,0,0,0,0,18,1,73,0,,,,,,,,,,,,,,,,,,,,,,,,432.703423023,w,1,None,0,,,,,,,,,0.450905799866,,,,,,,,,,,,,,,,,,,,,3.91,0.514200210571,0.000981092453003,0.450905799866,1,w,435.70562911,,,,,,,,,,,,,,,,,,,,,,2015_Jun_03_1157,59.9747477997,LearningTask,1,1001,
200,s,-200,,,,,,,,,,,,,,,,,0,0,0,0,18,2,74,2,,,,,,,,,,,,,,,,,,,,,,,,435.707229137,s,1,None,0,,,,,,,,,0.417862892151,,,,,,,,,,,,,,,,,,,,,0.8,0.5137758255,0.000957012176514,0.417862892151,1,s,438.70827198,,,,,,,,,,,,,,,,,,,,,,2015_Jun_03_1157,59.9747477997,LearningTask,1,1001,
200,s,-200,,,,,,,,,,,,,,,,,0,0,0,0,18,3,75,2,,,,,,,,,,,,,,,,,,,,,,,,438.709828138,s,1,None,0,,,,,,,,,0.333499908447,,,,,,,,,,,,,,,,,,,,,4.12,0.514521121979,0.000939130783081,0.333499908447,1,s,441.71213007,,,,,,,,,,,,,,,,,,,,,,2015_Jun_03_1157,59.9747477997,LearningTask,1,1001,
200,w,200,,,,,,,,,,,,,,,,,0,0,0,0,19,0,76,0,,,,,,,,,,,,,,,,,,,,,,,,441.71383214,w,1,None,0,,,,,,,,,0.367694854736,,,,,,,,,,,,,,,,,,,,,0.43,0.513782024384,0.0186910629272,0.367694854736,1,w,444.715180159,,,,,,,,,,,,,,,,,,,,,,2015_Jun_03_1157,59.9747477997,LearningTask,1,1001,
-200,q,200,,,,,,,,,,,,,,,,,0,0,0,0,19,1,77,1,,,,,,,,,,,,,,,,,,,,,,,,444.716825962,q,1,None,0,,,,,,,,,0.36775803566,,,,,,,,,,,,,,,,,,,,,3.75,0.514317035675,0.000981092453003,0.36775803566,1,q,447.718722105,,,,,,,,,,,,,,,,,,,,,,2015_Jun_03_1157,59.9747477997,LearningTask,1,1001,
-200,a,-200,,,,,,,,,,,,,,,,,0,0,0,0,19,2,78,3,,,,,,,,,,,,,,,,,,,,,,,,447.720404148,a,1,None,0,,,,,,,,,0.384052038193,,,,,,,,,,,,,,,,,,,,,0.7,0.514062166214,0.000939130783081,0.384052038193,1,a,450.721709967,,,,,,,,,,,,,,,,,,,,,,2015_Jun_03_1157,59.9747477997,LearningTask,1,1001,
200,s,-200,,,,,,,,,,,,,,,,,0,0,0,0,19,3,79,2,,,,,,,,,,,,,,,,,,,,,,,,450.723232031,s,1,None,0,,,,,,,,,0.367624998093,,,,,,,,,,,,,,,,,,,,,1.21,0.514559984207,0.0013542175293,0.367624998093,1,s,453.725090981,,,,,,,,,,,,,,,,,,,,,,2015_Jun_03_1157,59.9747477997,LearningTask,1,1001,
200,s,-200,,,,,,,,,,,,,,,,,0,0,0,0,20,0,80,2,,,,,,,,,,,,,,,,,,,,,,,,453.726556063,s,1,None,0,,,,,,,,,0.351615905762,,,,,,,,,,,,,,,,,,,,,0.56,0.514563083649,0.000941038131714,0.351615905762,1,s,456.728577137,,,,,,,,,,,,,,,,,,,,,,2015_Jun_03_1157,59.9747477997,LearningTask,1,1001,
-200,q,200,,,,,,,,,,,,,,,,,0,0,0,0,20,1,81,1,,,,,,,,,,,,,,,,,,,,,,,,456.730118036,q,1,None,0,,,,,,,,,0.350728988647,,,,,,,,,,,,,,,,,,,,,1.1,0.514418125153,0.00101709365845,0.350728988647,1,q,459.732211113,,,,,,,,,,,,,,,,,,,,,,2015_Jun_03_1157,59.9747477997,LearningTask,1,1001,
-200,q,200,,,,,,,,,,,,,,,,,0,0,0,0,20,2,82,1,,,,,,,,,,,,,,,,,,,,,,,,459.733857155,q,1,None,0,,,,,,,,,0.367453098297,,,,,,,,,,,,,,,,,,,,,0.94,0.514054059982,0.00098705291748,0.367453098297,1,q,462.735229015,,,,,,,,,,,,,,,,,,,,,,2015_Jun_03_1157,59.9747477997,LearningTask,1,1001,
200,s,-200,,,,,,,,,,,,,,,,,0,0,0,0,20,3,83,2,,,,,,,,,,,,,,,,,,,,,,,,462.736906052,s,1,None,0,,,,,,,,,0.333925008774,,,,,,,,,,,,,,,,,,,,,1.11,0.514356851578,0.00096583366394,0.333925008774,1,s,465.738605976,,,,,,,,,,,,,,,,,,,,,,2015_Jun_03_1157,59.9747477997,LearningTask,1,1001,
-200,q,200,,,,,,,,,,,,,,,,,0,0,0,0,21,0,84,1,,,,,,,,,,,,,,,,,,,,,,,,465.740118027,q,1,None,0,,,,,,,,,0.350396156311,,,,,,,,,,,,,,,,,,,,,4.04,0.514297008514,0.00095009803772,0.350396156311,1,q,468.741927147,,,,,,,,,,,,,,,,,,,,,,2015_Jun_03_1157,59.9747477997,LearningTask,1,1001,
200,s,-200,,,,,,,,,,,,,,,,,0,0,0,0,21,1,85,2,,,,,,,,,,,,,,,,,,,,,,,,468.743468046,s,1,None,0,,,,,,,,,0.384241104126,,,,,,,,,,,,,,,,,,,,,2.24,0.514366149902,0.00107407569885,0.384241104126,1,s,471.745620012,,,,,,,,,,,,,,,,,,,,,,2015_Jun_03_1157,59.9747477997,LearningTask,1,1001,
200,w,200,,,,,,,,,,,,,,,,,0,0,0,0,21,2,86,0,,,,,,,,,,,,,,,,,,,,,,,,471.747169018,w,1,None,0,,,,,,,,,0.367755889893,,,,,,,,,,,,,,,,,,,,,1.93,0.514036893845,0.000910043716431,0.367755889893,1,w,474.748375177,,,,,,,,,,,,,,,,,,,,,,2015_Jun_03_1157,59.9747477997,LearningTask,1,1001,
200,s,-200,,,,,,,,,,,,,,,,,0,0,0,0,21,3,87,2,,,,,,,,,,,,,,,,,,,,,,,,474.749997139,s,1,None,0,,,,,,,,,0.350493907928,,,,,,,,,,,,,,,,,,,,,1.0,0.514852046967,0.000924825668335,0.350493907928,1,s,477.751932144,,,,,,,,,,,,,,,,,,,,,,2015_Jun_03_1157,59.9747477997,LearningTask,1,1001,
-200,q,200,,,,,,,,,,,,,,,,,0,0,0,0,22,0,88,1,,,,,,,,,,,,,,,,,,,,,,,,477.753471136,q,1,None,0,,,,,,,,,0.318146944046,,,,,,,,,,,,,,,,,,,,,0.5,0.514307975769,0.000956058502197,0.318146944046,1,q,480.755470991,,,,,,,,,,,,,,,,,,,,,,2015_Jun_03_1157,59.9747477997,LearningTask,1,1001,
-200,a,-200,,,,,,,,,,,,,,,,,0,0,0,0,22,1,89,3,,,,,,,,,,,,,,,,,,,,,,,,480.757099152,a,1,None,0,,,,,,,,,0.384239912033,,,,,,,,,,,,,,,,,,,,,2.25,0.514091968536,0.000947952270508,0.384239912033,1,a,483.758707047,,,,,,,,,,,,,,,,,,,,,,2015_Jun_03_1157,59.9747477997,LearningTask,1,1001,
-200,a,-200,,,,,,,,,,,,,,,,,0,0,0,0,22,2,90,3,,,,,,,,,,,,,,,,,,,,,,,,483.760459185,a,1,None,0,,,,,,,,,0.418081045151,,,,,,,,,,,,,,,,,,,,,4.22,0.514122962952,0.000943899154663,0.418081045151,1,a,486.762016058,,,,,,,,,,,,,,,,,,,,,,2015_Jun_03_1157,59.9747477997,LearningTask,1,1001,
-200,a,-200,,,,,,,,,,,,,,,,,0,0,0,0,22,3,91,3,,,,,,,,,,,,,,,,,,,,,,,,486.763559103,a,1,None,0,,,,,,,,,0.367470979691,,,,,,,,,,,,,,,,,,,,,2.08,0.514457941055,0.000956058502197,0.367470979691,1,a,489.765341997,,,,,,,,,,,,,,,,,,,,,,2015_Jun_03_1157,59.9747477997,LearningTask,1,1001,
-200,a,-200,,,,,,,,,,,,,,,,,0,0,0,0,23,0,92,3,,,,,,,,,,,,,,,,,,,,,,,,489.766966105,a,1,None,0,,,,,,,,,0.384809017181,,,,,,,,,,,,,,,,,,,,,1.83,0.514137983322,0.000955820083618,0.384809017181,1,a,492.768712997,,,,,,,,,,,,,,,,,,,,,,2015_Jun_03_1157,59.9747477997,LearningTask,1,1001,
200,s,-200,,,,,,,,,,,,,,,,,0,0,0,0,23,1,93,2,,,,,,,,,,,,,,,,,,,,,,,,492.770179033,s,1,None,0,,,,,,,,,0.350831031799,,,,,,,,,,,,,,,,,,,,,1.99,0.514498949051,0.00104188919067,0.350831031799,1,s,495.772417068,,,,,,,,,,,,,,,,,,,,,,2015_Jun_03_1157,59.9747477997,LearningTask,1,1001,
-200,q,200,,,,,,,,,,,,,,,,,0,0,0,0,23,2,94,1,,,,,,,,,,,,,,,,,,,,,,,,495.774038076,q,1,None,0,,,,,,,,,0.383851051331,,,,,,,,,,,,,,,,,,,,,0.54,0.514227867126,0.00105595588684,0.383851051331,1,q,498.775307178,,,,,,,,,,,,,,,,,,,,,,2015_Jun_03_1157,59.9747477997,LearningTask,1,1001,
200,w,200,,,,,,,,,,,,,,,,,0,0,0,0,23,3,95,0,,,,,,,,,,,,,,,,,,,,,,,,498.776901007,w,1,None,0,,,,,,,,,0.334176063538,,,,,,,,,,,,,,,,,,,,,0.75,0.514938116074,0.000948190689087,0.334176063538,1,w,501.778645039,,,,,,,,,,,,,,,,,,,,,,2015_Jun_03_1157,59.9747477997,LearningTask,1,1001,
200,s,-200,,,,,,,,,,,,,,,,,0,0,0,0,24,0,96,2,,,,,,,,,,,,,,,,,,,,,,,,501.78015399,s,1,None,0,,,,,,,,,0.35120511055,,,,,,,,,,,,,,,,,,,,,3.98,0.514607906342,0.000990867614746,0.35120511055,1,s,504.782186985,,,,,,,,,,,,,,,,,,,,,,2015_Jun_03_1157,59.9747477997,LearningTask,1,1001,
-200,q,200,,,,,,,,,,,,,,,,,0,0,0,0,24,1,97,1,,,,,,,,,,,,,,,,,,,,,,,,504.783704996,q,1,None,0,,,,,,,,,0.200701951981,,,,,,,,,,,,,,,,,,,,,3.92,0.514271974564,0.00103807449341,0.200701951981,1,q,507.785593987,,,,,,,,,,,,,,,,,,,,,,2015_Jun_03_1157,59.9747477997,LearningTask,1,1001,
200,w,200,,,,,,,,,,,,,,,,,0,0,0,0,24,2,98,0,,,,,,,,,,,,,,,,,,,,,,,,507.787258148,w,1,None,0,,,,,,,,,0.46769785881,,,,,,,,,,,,,,,,,,,,,1.15,0.514439105988,0.000953912734985,0.46769785881,1,w,510.788674116,,,,,,,,,,,,,,,,,,,,,,2015_Jun_03_1157,59.9747477997,LearningTask,1,1001,
-200,a,-200,,,,,,,,,,,,,,,,,0,0,0,0,24,3,99,3,,,,,,,,,,,,,,,,,,,,,,,,510.790215969,a,1,None,0,,,,,,,,,0.350471973419,,,,,,,,,,,,,,,,,,,,,2.03,0.51479101181,0.00091290473938,0.350471973419,1,a,513.792186022,,,,,,,,,,,,,,,,,,,,,,2015_Jun_03_1157,59.9747477997,LearningTask,1,1001,
,,,,,,,,,,,,,,,,,,,0,0,0,0,,,,,,,,,,,,,,,,,,,,,,,,,,,,,,,,,,,,,,,,,,,,,,,,,,,,,,,,,,,,,,,,,,,,,,,,,,,,9,14.4419879913,,,,,,,,,,,,,2015_Jun_03_1157,59.9747477997,LearningTask,1,1001,
200,s,-200,,,,,,,,,,,,,,,,,1,0,1,0,0,0,0,2,,,,,,,,,,,,,,,,,,,,,,,,528.681797981,s,1,None,0,,,,,,,,,0.450958967209,,,,,,,,,,,,,,,,,,,,,0.29,0.509706020355,0.000958919525146,0.450958967209,1,s,531.679057121,,,,,,,,,,,,,,,,,,,,,,2015_Jun_03_1157,59.9747477997,LearningTask,1,1001,
200,s,-200,,,,,,,,,,,,,,,,,1,0,1,0,0,1,1,2,,,,,,,,,,,,,,,,,,,,,,,,531.680796146,s,1,None,0,,,,,,,,,0.317885875702,,,,,,,,,,,,,,,,,,,,,3.76,0.513833045959,0.000943899154663,0.317885875702,1,s,534.682064056,,,,,,,,,,,,,,,,,,,,,,2015_Jun_03_1157,59.9747477997,LearningTask,1,1001,
-200,a,-200,,,,,,,,,,,,,,,,,1,0,1,0,0,2,2,3,,,,,,,,,,,,,,,,,,,,,,,,534.683815002,a,1,None,0,,,,,,,,,0.4510409832,,,,,,,,,,,,,,,,,,,,,1.93,0.514389038086,0.000898122787476,0.4510409832,1,a,537.685526133,,,,,,,,,,,,,,,,,,,,,,2015_Jun_03_1157,59.9747477997,LearningTask,1,1001,
200,w,200,,,,,,,,,,,,,,,,,1,0,1,0,0,3,3,0,,,,,,,,,,,,,,,,,,,,,,,,537.687033176,w,1,None,0,,,,,,,,,0.35101890564,,,,,,,,,,,,,,,,,,,,,0.6,0.51424407959,0.000955104827881,0.35101890564,1,w,540.688841105,,,,,,,,,,,,,,,,,,,,,,2015_Jun_03_1157,59.9747477997,LearningTask,1,1001,
-200,q,200,,,,,,,,,,,,,,,,,1,0,1,0,1,0,4,1,,,,,,,,,,,,,,,,,,,,,,,,540.690392971,q,1,None,0,,,,,,,,,0.300576925278,,,,,,,,,,,,,,,,,,,,,0.5,0.514275074005,0.000955104827881,0.300576925278,1,q,543.692491055,,,,,,,,,,,,,,,,,,,,,,2015_Jun_03_1157,59.9747477997,LearningTask,1,1001,
200,w,200,,,,,,,,,,,,,,,,,1,0,1,0,1,1,5,0,,,,,,,,,,,,,,,,,,,,,,,,543.694050074,w,1,None,0,,,,,,,,,0.334091186523,,,,,,,,,,,,,,,,,,,,,0.57,0.514204978943,0.000980138778687,0.334091186523,1,w,546.69553113,,,,,,,,,,,,,,,,,,,,,,2015_Jun_03_1157,59.9747477997,LearningTask,1,1001,
-200,a,-200,,,,,,,,,,,,,,,,,1,0,1,0,1,2,6,3,,,,,,,,,,,,,,,,,,,,,,,,546.69731307,a,1,None,0,,,,,,,,,0.367485046387,,,,,,,,,,,,,,,,,,,,,3.97,0.514312982559,0.000900030136108,0.367485046387,1,a,549.698906183,,,,,,,,,,,,,,,,,,,,,,2015_Jun_03_1157,59.9747477997,LearningTask,1,1001,
200,w,200,,,,,,,,,,,,,,,,,1,0,1,0,1,3,7,0,,,,,,,,,,,,,,,,,,,,,,,,549.700433969,w,1,None,0,,,,,,,,,0.350695133209,,,,,,,,,,,,,,,,,,,,,1.98,0.514537096024,0.000960111618042,0.350695133209,1,w,552.70232296,,,,,,,,,,,,,,,,,,,,,,2015_Jun_03_1157,59.9747477997,LearningTask,1,1001,
200,s,-200,,,,,,,,,,,,,,,,,1,0,1,0,2,0,8,2,,,,,,,,,,,,,,,,,,,,,,,,552.70386219,s,1,None,0,,,,,,,,,0.251330137253,,,,,,,,,,,,,,,,,,,,,1.08,0.514153003693,0.000952005386353,0.251330137253,1,s,555.70603013,,,,,,,,,,,,,,,,,,,,,,2015_Jun_03_1157,59.9747477997,LearningTask,1,1001,
200,s,-200,,,,,,,,,,,,,,,,,1,0,1,0,2,1,9,2,,,,,,,,,,,,,,,,,,,,,,,,555.707636118,s,1,None,0,,,,,,,,,0.450876951218,,,,,,,,,,,,,,,,,,,,,2.08,0.513964176178,0.00102210044861,0.450876951218,1,s,558.709226131,,,,,,,,,,,,,,,,,,,,,,2015_Jun_03_1157,59.9747477997,LearningTask,1,1001,
200,w,200,,,,,,,,,,,,,,,,,1,0,1,0,2,2,10,0,,,,,,,,,,,,,,,,,,,,,,,,558.711016178,w,1,None,0,,,,,,,,,0.350636959076,,,,,,,,,,,,,,,,,,,,,3.98,0.514206171036,0.00095796585083,0.350636959076,1,w,561.712313175,,,,,,,,,,,,,,,,,,,,,,2015_Jun_03_1157,59.9747477997,LearningTask,1,1001,
-200,q,200,,,,,,,,,,,,,,,,,1,0,1,0,2,3,11,1,,,,,,,,,,,,,,,,,,,,,,,,561.713914156,q,1,None,0,,,,,,,,,0.318258047104,,,,,,,,,,,,,,,,,,,,,0.77,0.514197826385,0.00123000144958,0.318258047104,1,q,564.715741158,,,,,,,,,,,,,,,,,,,,,,2015_Jun_03_1157,59.9747477997,LearningTask,1,1001,
-200,q,200,,,,,,,,,,,,,,,,,1,0,1,0,3,0,12,1,,,,,,,,,,,,,,,,,,,,,,,,564.717210054,q,1,None,0,,,,,,,,,0.334138154984,,,,,,,,,,,,,,,,,,,,,1.88,0.514184951782,0.000938892364502,0.334138154984,1,q,567.718976021,,,,,,,,,,,,,,,,,,,,,,2015_Jun_03_1157,59.9747477997,LearningTask,1,1001,
200,s,-200,,,,,,,,,,,,,,,,,1,0,1,0,3,1,13,2,,,,,,,,,,,,,,,,,,,,,,,,567.720587969,s,1,None,0,,,,,,,,,0.351041078568,,,,,,,,,,,,,,,,,,,,,0.37,0.514714956284,0.000927925109863,0.351041078568,1,s,570.722776175,,,,,,,,,,,,,,,,,,,,,,2015_Jun_03_1157,59.9747477997,LearningTask,1,1001,
200,w,200,,,,,,,,,,,,,,,,,1,0,1,0,3,2,14,0,,,,,,,,,,,,,,,,,,,,,,,,570.724337101,w,1,None,0,,,,,,,,,0.350682020187,,,,,,,,,,,,,,,,,,,,,2.17,0.514408111572,0.000954151153564,0.350682020187,1,w,573.726133108,,,,,,,,,,,,,,,,,,,,,,2015_Jun_03_1157,59.9747477997,LearningTask,1,1001,
200,s,-200,,,,,,,,,,,,,,,,,1,0,1,0,3,3,15,2,,,,,,,,,,,,,,,,,,,,,,,,573.727763176,s,1,None,0,,,,,,,,,0.334381103516,,,,,,,,,,,,,,,,,,,,,1.01,0.513965845108,0.000943899154663,0.334381103516,1,s,576.729137182,,,,,,,,,,,,,,,,,,,,,,2015_Jun_03_1157,59.9747477997,LearningTask,1,1001,
-200,q,200,,,,,,,,,,,,,,,,,1,0,1,0,4,0,16,1,,,,,,,,,,,,,,,,,,,,,,,,576.730717182,q,1,None,0,,,,,,,,,0.250530004501,,,,,,,,,,,,,,,,,,,,,0.88,0.514678001404,0.000924110412598,0.250530004501,1,q,579.732573986,,,,,,,,,,,,,,,,,,,,,,2015_Jun_03_1157,59.9747477997,LearningTask,1,1001,
-200,q,200,,,,,,,,,,,,,,,,,1,0,1,0,4,1,17,1,,,,,,,,,,,,,,,,,,,,,,,,579.734447002,q,1,None,0,,,,,,,,,0.30094909668,,,,,,,,,,,,,,,,,,,,,0.54,0.513956069946,0.000956058502197,0.30094909668,1,q,582.73607111,,,,,,,,,,,,,,,,,,,,,,2015_Jun_03_1157,59.9747477997,LearningTask,1,1001,
-200,a,-200,,,,,,,,,,,,,,,,,1,0,1,0,4,2,18,3,,,,,,,,,,,,,,,,,,,,,,,,582.737635136,a,1,None,0,,,,,,,,,0.384648084641,,,,,,,,,,,,,,,,,,,,,3.86,0.514017820358,0.000919818878174,0.384648084641,1,a,585.739233971,,,,,,,,,,,,,,,,,,,,,,2015_Jun_03_1157,59.9747477997,LearningTask,1,1001,
200,s,-200,,,,,,,,,,,,,,,,,1,0,1,0,4,3,19,2,,,,,,,,,,,,,,,,,,,,,,,,585.740758181,s,1,None,0,,,,,,,,,0.36772608757,,,,,,,,,,,,,,,,,,,,,2.18,0.514434099197,0.00102114677429,0.36772608757,1,s,588.742825985,,,,,,,,,,,,,,,,,,,,,,2015_Jun_03_1157,59.9747477997,LearningTask,1,1001,
-200,q,200,,,,,,,,,,,,,,,,,1,0,1,0,5,0,20,1,,,,,,,,,,,,,,,,,,,,,,,,588.744332075,q,1,None,0,,,,,,,,,0.334157943726,,,,,,,,,,,,,,,,,,,,,1.76,0.514221191406,0.000923156738281,0.334157943726,1,q,591.745714188,,,,,,,,,,,,,,,,,,,,,,2015_Jun_03_1157,59.9747477997,LearningTask,1,1001,
200,s,-200,,,,,,,,,,,,,,,,,1,0,1,0,5,1,21,2,,,,,,,,,,,,,,,,,,,,,,,,591.747280121,s,1,None,0,,,,,,,,,0.334169864655,,,,,,,,,,,,,,,,,,,,,1.75,0.514774799347,0.000873804092407,0.334169864655,1,s,594.749122143,,,,,,,,,,,,,,,,,,,,,,2015_Jun_03_1157,59.9747477997,LearningTask,1,1001,
200,s,-200,,,,,,,,,,,,,,,,,1,0,1,0,5,2,22,2,,,,,,,,,,,,,,,,,,,,,,,,594.750651121,s,1,None,0,,,,,,,,,0.351106882095,,,,,,,,,,,,,,,,,,,,,4.21,0.514415979385,0.00100684165955,0.351106882095,1,s,597.752653122,,,,,,,,,,,,,,,,,,,,,,2015_Jun_03_1157,59.9747477997,LearningTask,1,1001,
-200,q,200,,,,,,,,,,,,,,,,,1,0,1,0,5,3,23,1,,,,,,,,,,,,,,,,,,,,,,,,597.754160166,q,1,None,0,,,,,,,,,0.351263999939,,,,,,,,,,,,,,,,,,,,,0.46,0.51433801651,0.000949859619141,0.351263999939,1,q,600.756124973,,,,,,,,,,,,,,,,,,,,,,2015_Jun_03_1157,59.9747477997,LearningTask,1,1001,
-200,a,-200,,,,,,,,,,,,,,,,,1,0,1,0,6,0,24,3,,,,,,,,,,,,,,,,,,,,,,,,600.757677078,a,1,None,0,,,,,,,,,0.351361036301,,,,,,,,,,,,,,,,,,,,,3.81,0.514159917831,0.00102996826172,0.351361036301,1,a,603.759499073,,,,,,,,,,,,,,,,,,,,,,2015_Jun_03_1157,59.9747477997,LearningTask,1,1001,
-200,a,-200,,,,,,,,,,,,,,,,,1,0,1,0,6,1,25,3,,,,,,,,,,,,,,,,,,,,,,,,603.761088133,a,1,None,0,,,,,,,,,0.384646892548,,,,,,,,,,,,,,,,,,,,,0.65,0.514034032822,0.00089693069458,0.384646892548,1,a,606.762550116,,,,,,,,,,,,,,,,,,,,,,2015_Jun_03_1157,59.9747477997,LearningTask,1,1001,
-200,q,200,,,,,,,,,,,,,,,,,1,0,1,0,6,2,26,1,,,,,,,,,,,,,,,,,,,,,,,,606.76417017,q,1,None,0,,,,,,,,,0.35075211525,,,,,,,,,,,,,,,,,,,,,0.75,0.51472902298,0.000896215438843,0.35075211525,1,q,609.765994072,,,,,,,,,,,,,,,,,,,,,,2015_Jun_03_1157,59.9747477997,LearningTask,1,1001,
200,w,200,,,,,,,,,,,,,,,,,1,0,1,0,6,3,27,0,,,,,,,,,,,,,,,,,,,,,,,,609.767573118,w,1,None,0,,,,,,,,,0.317909002304,,,,,,,,,,,,,,,,,,,,,3.94,0.514409065247,0.000939130783081,0.317909002304,1,w,612.769453049,,,,,,,,,,,,,,,,,,,,,,2015_Jun_03_1157,59.9747477997,LearningTask,1,1001,
-200,a,-200,,,,,,,,,,,,,,,,,1,0,1,0,7,0,28,3,,,,,,,,,,,,,,,,,,,,,,,,612.770991087,a,1,None,0,,,,,,,,,0.384332895279,,,,,,,,,,,,,,,,,,,,,3.98,0.51425909996,0.00134897232056,0.384332895279,1,a,615.773014069,,,,,,,,,,,,,,,,,,,,,,2015_Jun_03_1157,59.9747477997,LearningTask,1,1001,
-200,a,-200,,,,,,,,,,,,,,,,,1,0,1,0,7,1,29,3,,,,,,,,,,,,,,,,,,,,,,,,615.774629116,a,1,None,0,,,,,,,,,0.367956161499,,,,,,,,,,,,,,,,,,,,,0.55,0.514175891876,0.000936031341553,0.367956161499,1,a,618.775990963,,,,,,,,,,,,,,,,,,,,,,2015_Jun_03_1157,59.9747477997,LearningTask,1,1001,
200,w,200,,,,,,,,,,,,,,,,,1,0,1,0,7,2,30,0,,,,,,,,,,,,,,,,,,,,,,,,618.777599096,w,1,None,0,,,,,,,,,0.383996009827,,,,,,,,,,,,,,,,,,,,,0.47,0.514848947525,0.000898838043213,0.383996009827,1,w,621.779471159,,,,,,,,,,,,,,,,,,,,,,2015_Jun_03_1157,59.9747477997,LearningTask,1,1001,
200,w,200,,,,,,,,,,,,,,,,,1,0,1,0,7,3,31,0,,,,,,,,,,,,,,,,,,,,,,,,621.781093121,w,1,None,0,,,,,,,,,0.384960889816,,,,,,,,,,,,,,,,,,,,,2.1,0.514216899872,0.000946998596191,0.384960889816,1,w,624.782922029,,,,,,,,,,,,,,,,,,,,,,2015_Jun_03_1157,59.9747477997,LearningTask,1,1001,
200,w,200,,,,,,,,,,,,,,,,,1,0,1,0,8,0,32,0,,,,,,,,,,,,,,,,,,,,,,,,624.784528971,w,1,None,0,,,,,,,,,0.38449883461,,,,,,,,,,,,,,,,,,,,,4.03,0.514108896255,0.0010290145874,0.38449883461,1,w,627.786399126,,,,,,,,,,,,,,,,,,,,,,2015_Jun_03_1157,59.9747477997,LearningTask,1,1001,
200,w,200,,,,,,,,,,,,,,,,,1,0,1,0,8,1,33,0,,,,,,,,,,,,,,,,,,,,,,,,627.788027048,w,1,None,0,,,,,,,,,0.384689092636,,,,,,,,,,,,,,,,,,,,,0.74,0.514044046402,0.00099515914917,0.384689092636,1,w,630.789410114,,,,,,,,,,,,,,,,,,,,,,2015_Jun_03_1157,59.9747477997,LearningTask,1,1001,
-200,a,-200,,,,,,,,,,,,,,,,,1,0,1,0,8,2,34,3,,,,,,,,,,,,,,,,,,,,,,,,630.791031122,a,1,None,0,,,,,,,,,0.450617790222,,,,,,,,,,,,,,,,,,,,,0.47,0.51485490799,0.000900983810425,0.450617790222,1,a,633.792847157,,,,,,,,,,,,,,,,,,,,,,2015_Jun_03_1157,59.9747477997,LearningTask,1,1001,
200,w,200,,,,,,,,,,,,,,,,,1,0,1,0,8,3,35,0,,,,,,,,,,,,,,,,,,,,,,,,633.794440985,w,1,None,0,,,,,,,,,0.334388971329,,,,,,,,,,,,,,,,,,,,,3.96,0.514258146286,0.000936031341553,0.334388971329,1,w,636.796177149,,,,,,,,,,,,,,,,,,,,,,2015_Jun_03_1157,59.9747477997,LearningTask,1,1001,
200,s,-200,,,,,,,,,,,,,,,,,1,0,1,0,9,0,36,2,,,,,,,,,,,,,,,,,,,,,,,,636.797661066,s,1,None,0,,,,,,,,,0.418015003204,,,,,,,,,,,,,,,,,,,,,0.77,0.514343976974,0.000935077667236,0.418015003204,1,s,639.800028086,,,,,,,,,,,,,,,,,,,,,,2015_Jun_03_1157,59.9747477997,LearningTask,1,1001,
200,w,200,,,,,,,,,,,,,,,,,1,0,1,0,9,1,37,0,,,,,,,,,,,,,,,,,,,,,,,,639.801539183,w,1,None,0,,,,,,,,,0.317424058914,,,,,,,,,,,,,,,,,,,,,2.15,0.514017105103,0.00112414360046,0.317424058914,1,w,642.803152084,,,,,,,,,,,,,,,,,,,,,,2015_Jun_03_1157,59.9747477997,LearningTask,1,1001,
-200,a,-200,,,,,,,,,,,,,,,,,1,0,1,0,9,2,38,3,,,,,,,,,,,,,,,,,,,,,,,,642.804924011,a,1,None,0,,,,,,,,,0.384110212326,,,,,,,,,,,,,,,,,,,,,1.94,0.514102935791,0.000869989395142,0.384110212326,1,a,645.806269169,,,,,,,,,,,,,,,,,,,,,,2015_Jun_03_1157,59.9747477997,LearningTask,1,1001,
200,s,-200,,,,,,,,,,,,,,,,,1,0,1,0,9,3,39,2,,,,,,,,,,,,,,,,,,,,,,,,645.807813168,s,1,None,0,,,,,,,,,0.334114074707,,,,,,,,,,,,,,,,,,,,,1.0,0.514401912689,0.000929832458496,0.334114074707,1,s,648.809653044,,,,,,,,,,,,,,,,,,,,,,2015_Jun_03_1157,59.9747477997,LearningTask,1,1001,
-200,q,200,,,,,,,,,,,,,,,,,1,0,1,0,10,0,40,1,,,,,,,,,,,,,,,,,,,,,,,,648.811177969,q,1,None,0,,,,,,,,,0.367370128632,,,,,,,,,,,,,,,,,,,,,0.42,0.514521837234,0.000960826873779,0.367370128632,1,q,651.813349962,,,,,,,,,,,,,,,,,,,,,,2015_Jun_03_1157,59.9747477997,LearningTask,1,1001,
200,w,200,,,,,,,,,,,,,,,,,1,0,1,0,10,1,41,0,,,,,,,,,,,,,,,,,,,,,,,,651.814867973,w,1,None,0,,,,,,,,,0.300885915756,,,,,,,,,,,,,,,,,,,,,4.18,0.514065027237,0.00103211402893,0.300885915756,1,w,654.816195965,,,,,,,,,,,,,,,,,,,,,,2015_Jun_03_1157,59.9747477997,LearningTask,1,1001,
-200,q,200,,,,,,,,,,,,,,,,,1,0,1,0,10,2,42,1,,,,,,,,,,,,,,,,,,,,,,,,654.818019152,q,1,None,0,,,,,,,,,0.350945949554,,,,,,,,,,,,,,,,,,,,,0.8,0.514105796814,0.000890970230103,0.350945949554,1,q,657.819632053,,,,,,,,,,,,,,,,,,,,,,2015_Jun_03_1157,59.9747477997,LearningTask,1,1001,
200,s,-200,,,,,,,,,,,,,,,,,1,0,1,0,10,3,43,2,,,,,,,,,,,,,,,,,,,,,,,,657.821182013,s,1,None,0,,,,,,,,,0.484642028809,,,,,,,,,,,,,,,,,,,,,2.05,0.514326095581,0.000920057296753,0.484642028809,1,s,660.823217154,,,,,,,,,,,,,,,,,,,,,,2015_Jun_03_1157,59.9747477997,LearningTask,1,1001,
-200,q,200,,,,,,,,,,,,,,,,,1,0,1,0,11,0,44,1,,,,,,,,,,,,,,,,,,,,,,,,660.824841976,q,1,None,0,,,,,,,,,0.283473968506,,,,,,,,,,,,,,,,,,,,,3.95,0.514381885529,0.000943899154663,0.283473968506,1,q,663.826884985,,,,,,,,,,,,,,,,,,,,,,2015_Jun_03_1157,59.9747477997,LearningTask,1,1001,
-200,q,200,,,,,,,,,,,,,,,,,1,0,1,0,11,1,45,1,,,,,,,,,,,,,,,,,,,,,,,,663.828387976,q,1,None,0,,,,,,,,,0.301228046417,,,,,,,,,,,,,,,,,,,,,0.31,0.51390504837,0.00116801261902,0.301228046417,1,q,666.829712152,,,,,,,,,,,,,,,,,,,,,,2015_Jun_03_1157,59.9747477997,LearningTask,1,1001,
200,s,-200,,,,,,,,,,,,,,,,,1,0,1,0,11,2,46,2,,,,,,,,,,,,,,,,,,,,,,,,666.831412077,s,1,None,0,,,,,,,,,0.350431203842,,,,,,,,,,,,,,,,,,,,,0.34,0.514574766159,0.000870943069458,0.350431203842,1,s,669.833112001,,,,,,,,,,,,,,,,,,,,,,2015_Jun_03_1157,59.9747477997,LearningTask,1,1001,
-200,a,-200,,,,,,,,,,,,,,,,,1,0,1,0,11,3,47,3,,,,,,,,,,,,,,,,,,,,,,,,669.834633112,a,1,None,0,,,,,,,,,0.367647886276,,,,,,,,,,,,,,,,,,,,,0.58,0.51441192627,0.000925064086914,0.367647886276,1,a,672.83653307,,,,,,,,,,,,,,,,,,,,,,2015_Jun_03_1157,59.9747477997,LearningTask,1,1001,
200,s,-200,,,,,,,,,,,,,,,,,1,0,1,0,12,0,48,2,,,,,,,,,,,,,,,,,,,,,,,,672.838006973,s,1,None,0,,,,,,,,,0.334498882294,,,,,,,,,,,,,,,,,,,,,1.17,0.514299154282,0.000941038131714,0.334498882294,1,s,675.840056181,,,,,,,,,,,,,,,,,,,,,,2015_Jun_03_1157,59.9747477997,LearningTask,1,1001,
-200,q,200,,,,,,,,,,,,,,,,,1,0,1,0,12,1,49,1,,,,,,,,,,,,,,,,,,,,,,,,675.841834068,q,1,None,0,,,,,,,,,0.300784111023,,,,,,,,,,,,,,,,,,,,,1.94,0.513859987259,0.00111103057861,0.300784111023,1,q,678.843207121,,,,,,,,,,,,,,,,,,,,,,2015_Jun_03_1157,59.9747477997,LearningTask,1,1001,
-200,a,-200,,,,,,,,,,,,,,,,,1,0,1,0,12,2,50,3,,,,,,,,,,,,,,,,,,,,,,,,678.844945192,a,1,None,0,,,,,,,,,0.350769042969,,,,,,,,,,,,,,,,,,,,,0.89,0.514213085175,0.00087308883667,0.350769042969,1,a,681.846626043,,,,,,,,,,,,,,,,,,,,,,2015_Jun_03_1157,59.9747477997,LearningTask,1,1001,
200,w,200,,,,,,,,,,,,,,,,,1,0,1,0,12,3,51,0,,,,,,,,,,,,,,,,,,,,,,,,681.848138094,w,1,None,0,,,,,,,,,0.317872047424,,,,,,,,,,,,,,,,,,,,,0.79,0.51430106163,0.000929117202759,0.317872047424,1,w,684.84990716,,,,,,,,,,,,,,,,,,,,,,2015_Jun_03_1157,59.9747477997,LearningTask,1,1001,
200,s,-200,,,,,,,,,,,,,,,,,1,0,1,0,13,0,52,2,,,,,,,,,,,,,,,,,,,,,,,,684.851376057,s,1,None,0,,,,,,,,,0.334359884262,,,,,,,,,,,,,,,,,,,,,4.0,0.51429605484,0.000930070877075,0.334359884262,1,s,687.85366416,,,,,,,,,,,,,,,,,,,,,,2015_Jun_03_1157,59.9747477997,LearningTask,1,1001,
200,w,200,,,,,,,,,,,,,,,,,1,0,1,0,13,1,53,0,,,,,,,,,,,,,,,,,,,,,,,,687.855205059,w,1,None,0,,,,,,,,,0.334282159805,,,,,,,,,,,,,,,,,,,,,0.36,0.513727903366,0.00107502937317,0.334282159805,1,w,690.856631994,,,,,,,,,,,,,,,,,,,,,,2015_Jun_03_1157,59.9747477997,LearningTask,1,1001,
-200,a,-200,,,,,,,,,,,,,,,,,1,0,1,0,13,2,54,3,,,,,,,,,,,,,,,,,,,,,,,,693.860172987,a,1,None,0,,,,,,,,,0.300401926041,,,,,,,,,,,,,,,,,,,,,1.87,0.51461815834,0.00086522102356,0.250534057617,0,q,693.859829187,1.81,0.515707015991,0.00113701820374,0.300401926041,1,a,696.863638163,,,,,,,,,,,,,,,2015_Jun_03_1157,59.9747477997,LearningTask,1,1001,
-200,q,200,,,,,,,,,,,,,,,,,1,0,1,0,13,3,55,1,,,,,,,,,,,,,,,,,,,,,,,,696.865545034,q,1,None,0,,,,,,,,,0.317516088486,,,,,,,,,,,,,,,,,,,,,0.59,0.513800859451,0.000922918319702,0.317516088486,1,q,699.867179155,,,,,,,,,,,,,,,,,,,,,,2015_Jun_03_1157,59.9747477997,LearningTask,1,1001,
200,s,-200,,,,,,,,,,,,,,,,,1,0,1,0,14,0,56,2,,,,,,,,,,,,,,,,,,,,,,,,699.868849039,s,1,None,0,,,,,,,,,0.367684841156,,,,,,,,,,,,,,,,,,,,,3.76,0.513632059097,0.00103902816772,0.367684841156,1,s,702.87009716,,,,,,,,,,,,,,,,,,,,,,2015_Jun_03_1157,59.9747477997,LearningTask,1,1001,
200,s,-200,,,,,,,,,,,,,,,,,1,0,1,0,14,1,57,2,,,,,,,,,,,,,,,,,,,,,,,,702.871973038,s,1,None,0,,,,,,,,,0.351170063019,,,,,,,,,,,,,,,,,,,,,1.14,0.513832807541,0.000902891159058,0.351170063019,1,s,705.873401165,,,,,,,,,,,,,,,,,,,,,,2015_Jun_03_1157,59.9747477997,LearningTask,1,1001,
-200,q,200,,,,,,,,,,,,,,,,,1,0,1,0,14,2,58,1,,,,,,,,,,,,,,,,,,,,,,,,705.874896049,q,1,None,0,,,,,,,,,0.26766705513,,,,,,,,,,,,,,,,,,,,,2.1,0.51438999176,0.000865936279297,0.26766705513,1,q,708.876861095,,,,,,,,,,,,,,,,,,,,,,2015_Jun_03_1157,59.9747477997,LearningTask,1,1001,
-200,q,200,,,,,,,,,,,,,,,,,1,0,1,0,14,3,59,1,,,,,,,,,,,,,,,,,,,,,,,,708.878322124,q,1,None,0,,,,,,,,,0.401091098785,,,,,,,,,,,,,,,,,,,,,4.08,0.514302968979,0.000892877578735,0.401091098785,1,q,711.880555153,,,,,,,,,,,,,,,,,,,,,,2015_Jun_03_1157,59.9747477997,LearningTask,1,1001,
200,s,-200,,,,,,,,,,,,,,,,,1,0,1,0,15,0,60,2,,,,,,,,,,,,,,,,,,,,,,,,711.882097006,s,1,None,0,,,,,,,,,0.367606163025,,,,,,,,,,,,,,,,,,,,,0.73,0.513797998428,0.00120306015015,0.367606163025,1,s,714.883324146,,,,,,,,,,,,,,,,,,,,,,2015_Jun_03_1157,59.9747477997,LearningTask,1,1001,
200,s,-200,,,,,,,,,,,,,,,,,1,0,1,0,15,1,61,2,,,,,,,,,,,,,,,,,,,,,,,,714.885761976,s,1,None,0,,,,,,,,,0.350935935974,,,,,,,,,,,,,,,,,,,,,1.01,0.513921976089,0.00119280815125,0.350935935974,1,s,717.887066126,,,,,,,,,,,,,,,,,,,,,,2015_Jun_03_1157,59.9747477997,LearningTask,1,1001,
200,w,200,,,,,,,,,,,,,,,,,1,0,1,0,15,2,62,0,,,,,,,,,,,,,,,,,,,,,,,,717.888664961,w,1,None,0,,,,,,,,,0.484634160995,,,,,,,,,,,,,,,,,,,,,2.13,0.513828039169,0.00150012969971,0.484634160995,1,w,720.890614033,,,,,,,,,,,,,,,,,,,,,,2015_Jun_03_1157,59.9747477997,LearningTask,1,1001,
-200,q,200,,,,,,,,,,,,,,,,,1,0,1,0,15,3,63,1,,,,,,,,,,,,,,,,,,,,,,,,720.892349005,q,1,None,0,,,,,,,,,0.301076889038,,,,,,,,,,,,,,,,,,,,,0.54,0.51374912262,0.0013120174408,0.301076889038,1,q,723.893656969,,,,,,,,,,,,,,,,,,,,,,2015_Jun_03_1157,59.9747477997,LearningTask,1,1001,
-200,a,-200,,,,,,,,,,,,,,,,,1,0,1,0,16,0,64,3,,,,,,,,,,,,,,,,,,,,,,,,723.895255089,a,1,None,0,,,,,,,,,0.317481994629,,,,,,,,,,,,,,,,,,,,,0.37,0.513991117477,0.000886201858521,0.317481994629,1,a,726.89706707,,,,,,,,,,,,,,,,,,,,,,2015_Jun_03_1157,59.9747477997,LearningTask,1,1001,
-200,a,-200,,,,,,,,,,,,,,,,,1,0,1,0,16,1,65,3,,,,,,,,,,,,,,,,,,,,,,,,726.89864707,a,1,None,0,,,,,,,,,0.383951187134,,,,,,,,,,,,,,,,,,,,,3.98,0.514240026474,0.00135707855225,0.383951187134,1,a,729.900436163,,,,,,,,,,,,,,,,,,,,,,2015_Jun_03_1157,59.9747477997,LearningTask,1,1001,
-200,q,200,,,,,,,,,,,,,,,,,1,0,1,0,16,2,66,1,,,,,,,,,,,,,,,,,,,,,,,,729.90219903,q,1,None,0,,,,,,,,,0.350822925568,,,,,,,,,,,,,,,,,,,,,1.87,0.51398897171,0.00100708007812,0.350822925568,1,q,732.903872013,,,,,,,,,,,,,,,,,,,,,,2015_Jun_03_1157,59.9747477997,LearningTask,1,1001,
200,w,200,,,,,,,,,,,,,,,,,1,0,1,0,16,3,67,0,,,,,,,,,,,,,,,,,,,,,,,,732.905589104,w,1,None,0,,,,,,,,,0.351485967636,,,,,,,,,,,,,,,,,,,,,3.92,0.513708114624,0.00101900100708,0.351485967636,1,w,735.906980038,,,,,,,,,,,,,,,,,,,,,,2015_Jun_03_1157,59.9747477997,LearningTask,1,1001,
200,w,200,,,,,,,,,,,,,,,,,1,0,1,0,17,0,68,0,,,,,,,,,,,,,,,,,,,,,,,,735.908571005,w,1,None,0,,,,,,,,,0.334253787994,,,,,,,,,,,,,,,,,,,,,0.78,0.514461994171,0.01784491539,0.334253787994,1,w,738.910578012,,,,,,,,,,,,,,,,,,,,,,2015_Jun_03_1157,59.9747477997,LearningTask,1,1001,
200,w,200,,,,,,,,,,,,,,,,,1,0,1,0,17,1,69,0,,,,,,,,,,,,,,,,,,,,,,,,738.912255049,w,1,None,0,,,,,,,,,0.317404985428,,,,,,,,,,,,,,,,,,,,,1.85,0.514069080353,0.00132703781128,0.317404985428,1,w,741.914067984,,,,,,,,,,,,,,,,,,,,,,2015_Jun_03_1157,59.9747477997,LearningTask,1,1001,
200,w,200,,,,,,,,,,,,,,,,,1,0,1,0,17,2,70,0,,,,,,,,,,,,,,,,,,,,,,,,741.915781021,w,1,None,0,,,,,,,,,0.35126709938,,,,,,,,,,,,,,,,,,,,,1.0,0.513836860657,0.00101494789124,0.35126709938,1,w,744.917112112,,,,,,,,,,,,,,,,,,,,,,2015_Jun_03_1157,59.9747477997,LearningTask,1,1001,
-200,a,-200,,,,,,,,,,,,,,,,,1,0,1,0,17,3,71,3,,,,,,,,,,,,,,,,,,,,,,,,747.921054125,a,1,None,0,,,,,,,,,0.26780796051,,,,,,,,,,,,,,,,,,,,,0.63,0.514230012894,0.0565612316132,0.351205825806,0,q,747.9207201,0.27,0.515007972717,0.00098991394043,0.26780796051,1,a,750.923629999,,,,,,,,,,,,,,,2015_Jun_03_1157,59.9747477997,LearningTask,1,1001,
-200,a,-200,,,,,,,,,,,,,,,,,1,0,1,0,18,0,72,3,,,,,,,,,,,,,,,,,,,,,,,,750.925318003,a,1,None,0,,,,,,,,,0.366899013519,,,,,,,,,,,,,,,,,,,,,4.12,0.514369010925,0.00106120109558,0.366899013519,1,a,753.926962137,,,,,,,,,,,,,,,,,,,,,,2015_Jun_03_1157,59.9747477997,LearningTask,1,1001,
-200,q,200,,,,,,,,,,,,,,,,,1,0,1,0,18,1,73,1,,,,,,,,,,,,,,,,,,,,,,,,753.928548098,q,1,None,0,,,,,,,,,0.300899982452,,,,,,,,,,,,,,,,,,,,,3.81,0.514545917511,0.00132703781128,0.300899982452,1,q,756.93038702,,,,,,,,,,,,,,,,,,,,,,2015_Jun_03_1157,59.9747477997,LearningTask,1,1001,
-200,a,-200,,,,,,,,,,,,,,,,,1,0,1,0,18,2,74,3,,,,,,,,,,,,,,,,,,,,,,,,756.931923151,a,1,None,0,,,,,,,,,0.400657176971,,,,,,,,,,,,,,,,,,,,,3.89,0.514481067657,0.000932216644287,0.400657176971,1,a,759.934180021,,,,,,,,,,,,,,,,,,,,,,2015_Jun_03_1157,59.9747477997,LearningTask,1,1001,
-200,a,-200,,,,,,,,,,,,,,,,,1,0,1,0,18,3,75,3,,,,,,,,,,,,,,,,,,,,,,,,759.935683966,a,1,None,0,,,,,,,,,0.350604057312,,,,,,,,,,,,,,,,,,,,,0.99,0.514114141464,0.000971078872681,0.350604057312,1,a,762.936861992,,,,,,,,,,,,,,,,,,,,,,2015_Jun_03_1157,59.9747477997,LearningTask,1,1001,
-200,q,200,,,,,,,,,,,,,,,,,1,0,1,0,19,0,76,1,,,,,,,,,,,,,,,,,,,,,,,,762.938544035,q,1,None,0,,,,,,,,,0.350763082504,,,,,,,,,,,,,,,,,,,,,0.27,0.514853954315,0.000890970230103,0.350763082504,1,q,765.940426111,,,,,,,,,,,,,,,,,,,,,,2015_Jun_03_1157,59.9747477997,LearningTask,1,1001,
200,w,200,,,,,,,,,,,,,,,,,1,0,1,0,19,1,77,0,,,,,,,,,,,,,,,,,,,,,,,,765.942110062,w,1,None,0,,,,,,,,,0.367855072021,,,,,,,,,,,,,,,,,,,,,0.85,0.514168024063,0.000926971435547,0.367855072021,1,w,768.94382,,,,,,,,,,,,,,,,,,,,,,2015_Jun_03_1157,59.9747477997,LearningTask,1,1001,
-200,q,200,,,,,,,,,,,,,,,,,1,0,1,0,19,2,78,1,,,,,,,,,,,,,,,,,,,,,,,,768.945324183,q,1,None,0,,,,,,,,,0.400978088379,,,,,,,,,,,,,,,,,,,,,0.95,0.514405965805,0.000946998596191,0.400978088379,1,q,771.947448015,,,,,,,,,,,,,,,,,,,,,,2015_Jun_03_1157,59.9747477997,LearningTask,1,1001,
-200,a,-200,,,,,,,,,,,,,,,,,1,0,1,0,19,3,79,3,,,,,,,,,,,,,,,,,,,,,,,,771.949043989,a,1,None,0,,,,,,,,,0.317727088928,,,,,,,,,,,,,,,,,,,,,1.06,0.514147996902,0.00103211402893,0.317727088928,1,a,774.950558186,,,,,,,,,,,,,,,,,,,,,,2015_Jun_03_1157,59.9747477997,LearningTask,1,1001,
200,s,-200,,,,,,,,,,,,,,,,,1,0,1,0,20,0,80,2,,,,,,,,,,,,,,,,,,,,,,,,774.952254057,s,1,None,0,,,,,,,,,0.334259986877,,,,,,,,,,,,,,,,,,,,,0.95,0.514642000198,0.000910043716431,0.334259986877,1,s,777.953938961,,,,,,,,,,,,,,,,,,,,,,2015_Jun_03_1157,59.9747477997,LearningTask,1,1001,
-200,a,-200,,,,,,,,,,,,,,,,,1,0,1,0,20,1,81,3,,,,,,,,,,,,,,,,,,,,,,,,777.955468178,a,1,None,0,,,,,,,,,0.417944908142,,,,,,,,,,,,,,,,,,,,,2.06,0.514300823212,0.000911951065063,0.417944908142,1,a,780.957327127,,,,,,,,,,,,,,,,,,,,,,2015_Jun_03_1157,59.9747477997,LearningTask,1,1001,
-200,a,-200,,,,,,,,,,,,,,,,,1,0,1,0,20,2,82,3,,,,,,,,,,,,,,,,,,,,,,,,780.958827019,a,1,None,0,,,,,,,,,0.383703947067,,,,,,,,,,,,,,,,,,,,,0.45,0.514341831207,0.00098991394043,0.383703947067,1,a,783.960916996,,,,,,,,,,,,,,,,,,,,,,2015_Jun_03_1157,59.9747477997,LearningTask,1,1001,
200,s,-200,,,,,,,,,,,,,,,,,1,0,1,0,20,3,83,2,,,,,,,,,,,,,,,,,,,,,,,,783.962584019,s,1,None,0,,,,,,,,,0.384131908417,,,,,,,,,,,,,,,,,,,,,1.17,0.514042139053,0.00103116035461,0.384131908417,1,s,786.964852095,,,,,,,,,,,,,,,,,,,,,,2015_Jun_03_1157,59.9747477997,LearningTask,1,1001,
200,s,-200,,,,,,,,,,,,,,,,,1,0,1,0,21,0,84,2,,,,,,,,,,,,,,,,,,,,,,,,786.966444969,s,1,None,0,,,,,,,,,0.350579023361,,,,,,,,,,,,,,,,,,,,,0.93,0.513753890991,0.000975847244263,0.350579023361,1,s,789.967305183,,,,,,,,,,,,,,,,,,,,,,2015_Jun_03_1157,59.9747477997,LearningTask,1,1001,
-200,q,200,,,,,,,,,,,,,,,,,1,0,1,0,21,1,85,1,,,,,,,,,,,,,,,,,,,,,,,,792.971094131,q,1,None,0,,,,,,,,,0.317651033401,,,,,,,,,,,,,,,,,,,,,2.12,0.514266014099,0.0505828857422,0.351181030273,0,a,792.970782042,2.04,0.515295028687,0.000975131988525,0.317651033401,1,q,795.974574089,,,,,,,,,,,,,,,2015_Jun_03_1157,59.9747477997,LearningTask,1,1001,
-200,a,-200,,,,,,,,,,,,,,,,,1,0,1,0,21,2,86,3,,,,,,,,,,,,,,,,,,,,,,,,795.976067066,a,1,None,0,,,,,,,,,0.334479093552,,,,,,,,,,,,,,,,,,,,,0.52,0.513969898224,0.00102496147156,0.334479093552,1,a,798.97834897,,,,,,,,,,,,,,,,,,,,,,2015_Jun_03_1157,59.9747477997,LearningTask,1,1001,
200,w,200,,,,,,,,,,,,,,,,,1,0,1,0,21,3,87,0,,,,,,,,,,,,,,,,,,,,,,,,798.979974985,w,1,None,0,,,,,,,,,0.367466926575,,,,,,,,,,,,,,,,,,,,,0.75,0.513675928116,0.000929832458496,0.367466926575,1,w,801.980774164,,,,,,,,,,,,,,,,,,,,,,2015_Jun_03_1157,59.9747477997,LearningTask,1,1001,
200,s,-200,,,,,,,,,,,,,,,,,1,0,1,0,22,0,88,2,,,,,,,,,,,,,,,,,,,,,,,,801.982292175,s,1,None,0,,,,,,,,,0.350786209106,,,,,,,,,,,,,,,,,,,,,2.13,0.514377117157,0.000927925109863,0.350786209106,1,s,804.984415054,,,,,,,,,,,,,,,,,,,,,,2015_Jun_03_1157,59.9747477997,LearningTask,1,1001,
200,s,-200,,,,,,,,,,,,,,,,,1,0,1,0,22,1,89,2,,,,,,,,,,,,,,,,,,,,,,,,804.986057997,s,1,None,0,,,,,,,,,0.383970975876,,,,,,,,,,,,,,,,,,,,,1.85,0.514144897461,0.000923871994019,0.383970975876,1,s,807.987365961,,,,,,,,,,,,,,,,,,,,,,2015_Jun_03_1157,59.9747477997,LearningTask,1,1001,
-200,q,200,,,,,,,,,,,,,,,,,1,0,1,0,22,2,90,1,,,,,,,,,,,,,,,,,,,,,,,,807.988947153,q,1,None,0,,,,,,,,,0.351218938828,,,,,,,,,,,,,,,,,,,,,2.06,0.514551877975,0.000887870788574,0.351218938828,1,q,810.99080801,,,,,,,,,,,,,,,,,,,,,,2015_Jun_03_1157,59.9747477997,LearningTask,1,1001,
-200,q,200,,,,,,,,,,,,,,,,,1,0,1,0,22,3,91,1,,,,,,,,,,,,,,,,,,,,,,,,810.992374182,q,1,None,0,,,,,,,,,0.300951004028,,,,,,,,,,,,,,,,,,,,,4.06,0.514663934708,0.000938892364502,0.300951004028,1,q,813.994227171,,,,,,,,,,,,,,,,,,,,,,2015_Jun_03_1157,59.9747477997,LearningTask,1,1001,
-200,a,-200,,,,,,,,,,,,,,,,,1,0,1,0,23,0,92,3,,,,,,,,,,,,,,,,,,,,,,,,813.995779991,a,1,None,0,,,,,,,,,0.400950908661,,,,,,,,,,,,,,,,,,,,,0.3,0.514168024063,0.000925064086914,0.400950908661,1,a,816.997779131,,,,,,,,,,,,,,,,,,,,,,2015_Jun_03_1157,59.9747477997,LearningTask,1,1001,
-200,a,-200,,,,,,,,,,,,,,,,,1,0,1,0,23,1,93,3,,,,,,,,,,,,,,,,,,,,,,,,816.999474049,a,1,None,0,,,,,,,,,0.384391069412,,,,,,,,,,,,,,,,,,,,,0.45,0.514031887054,0.000972986221313,0.384391069412,1,a,820.000869036,,,,,,,,,,,,,,,,,,,,,,2015_Jun_03_1157,59.9747477997,LearningTask,1,1001,
-200,q,200,,,,,,,,,,,,,,,,,1,0,1,0,23,2,94,1,,,,,,,,,,,,,,,,,,,,,,,,820.002444983,q,1,None,0,,,,,,,,,0.367262125015,,,,,,,,,,,,,,,,,,,,,3.83,0.514585971832,0.000885963439941,0.367262125015,1,q,823.004379034,,,,,,,,,,,,,,,,,,,,,,2015_Jun_03_1157,59.9747477997,LearningTask,1,1001,
200,w,200,,,,,,,,,,,,,,,,,1,0,1,0,23,3,95,0,,,,,,,,,,,,,,,,,,,,,,,,826.007928133,w,1,None,0,,,,,,,,,0.267501115799,,,,,,,,,,,,,,,,,,,,,0.72,0.514430046082,0.000953197479248,0.350749969482,0,s,826.007524014,0.51,0.5155210495,0.00100302696228,0.267501115799,1,w,829.010953188,,,,,,,,,,,,,,,2015_Jun_03_1157,59.9747477997,LearningTask,1,1001,
-200,a,-200,,,,,,,,,,,,,,,,,1,0,1,0,24,0,96,3,,,,,,,,,,,,,,,,,,,,,,,,829.012560129,a,1,None,0,,,,,,,,,0.368062973022,,,,,,,,,,,,,,,,,,,,,0.7,0.514225006104,0.000942945480347,0.368062973022,1,a,832.014686108,,,,,,,,,,,,,,,,,,,,,,2015_Jun_03_1157,59.9747477997,LearningTask,1,1001,
200,w,200,,,,,,,,,,,,,,,,,1,0,1,0,24,1,97,0,,,,,,,,,,,,,,,,,,,,,,,,832.01630497,w,1,None,0,,,,,,,,,0.351208925247,,,,,,,,,,,,,,,,,,,,,1.79,0.514024972916,0.000905990600586,0.351208925247,1,w,835.017657042,,,,,,,,,,,,,,,,,,,,,,2015_Jun_03_1157,59.9747477997,LearningTask,1,1001,
200,w,200,,,,,,,,,,,,,,,,,1,0,1,0,24,2,98,0,,,,,,,,,,,,,,,,,,,,,,,,835.019292116,w,1,q,0,0.091068983078,,,,,,,,0.400761842728,,,,,,,,,,,,,,,,,,,,,0.97,0.514779090881,0.000905990600586,0.400761842728,1,w,838.020982027,,,,,,,,,,,,,,,,,,,,,,2015_Jun_03_1157,59.9747477997,LearningTask,1,1001,
200,s,-200,,,,,,,,,,,,,,,,,1,0,1,0,24,3,99,2,,,,,,,,,,,,,,,,,,,,,,,,838.022464037,s,1,None,0,,,,,,,,,0.417798995972,,,,,,,,,,,,,,,,,,,,,3.93,0.514336824417,0.000917911529541,0.417798995972,1,s,841.024469137,,,,,,,,,,,,,,,,,,,,,,2015_Jun_03_1157,59.9747477997,LearningTask,1,1001,
,,,,,,,,,,,,,,,,,,,1,0,1,0,,,,,,,,,,,,,,,,,,,,,,,,,,,,,,,,,,,,,,,,,,,,,,,,,,,,,,,,,,,,,,,,,,,,,,,,,,,,9,25.8288969994,,,,,,,,,,,,,2015_Jun_03_1157,59.9747477997,LearningTask,1,1001,
200,s,-200,,,,,,,,,,,,,,,,,2,0,2,0,0,0,0,2,,,,,,,,,,,,,,,,,,,,,,,,867.545585155,s,1,None,0,,,,,,,,,0.367810964584,,,,,,,,,,,,,,,,,,,,,0.4,0.50758099556,0.000962972640991,0.367810964584,1,s,870.541391134,,,,,,,,,,,,,,,,,,,,,,2015_Jun_03_1157,59.9747477997,LearningTask,1,1001,
200,w,200,,,,,,,,,,,,,,,,,2,0,2,0,0,1,1,0,,,,,,,,,,,,,,,,,,,,,,,,870.543116093,w,1,None,0,,,,,,,,,0.43385219574,,,,,,,,,,,,,,,,,,,,,3.8,0.513438940048,0.000911951065063,0.43385219574,1,w,873.544578075,,,,,,,,,,,,,,,,,,,,,,2015_Jun_03_1157,59.9747477997,LearningTask,1,1001,
-200,a,-200,,,,,,,,,,,,,,,,,2,0,2,0,0,2,2,3,,,,,,,,,,,,,,,,,,,,,,,,873.546108961,a,1,None,0,,,,,,,,,0.501302957535,,,,,,,,,,,,,,,,,,,,,0.97,0.513882875443,0.000934839248657,0.501302957535,1,a,876.547463179,,,,,,,,,,,,,,,,,,,,,,2015_Jun_03_1157,59.9747477997,LearningTask,1,1001,
200,s,-200,,,,,,,,,,,,,,,,,2,0,2,0,0,3,3,2,,,,,,,,,,,,,,,,,,,,,,,,876.549060106,s,1,None,0,,,,,,,,,0.334609985352,,,,,,,,,,,,,,,,,,,,,4.04,0.51406788826,0.00092601776123,0.334609985352,1,s,879.550678968,,,,,,,,,,,,,,,,,,,,,,2015_Jun_03_1157,59.9747477997,LearningTask,1,1001,
-200,a,-200,,,,,,,,,,,,,,,,,2,0,2,0,1,0,4,3,,,,,,,,,,,,,,,,,,,,,,,,879.552241087,a,1,None,0,,,,,,,,,0.400928974152,,,,,,,,,,,,,,,,,,,,,0.66,0.51456785202,0.000946044921875,0.400928974152,1,a,882.554448128,,,,,,,,,,,,,,,,,,,,,,2015_Jun_03_1157,59.9747477997,LearningTask,1,1001,
-200,q,200,,,,,,,,,,,,,,,,,2,0,2,0,1,1,5,1,,,,,,,,,,,,,,,,,,,,,,,,882.556025982,q,1,None,0,,,,,,,,,0.317744970322,,,,,,,,,,,,,,,,,,,,,1.93,0.51403594017,0.00103306770325,0.317744970322,1,q,885.557939053,,,,,,,,,,,,,,,,,,,,,,2015_Jun_03_1157,59.9747477997,LearningTask,1,1001,
200,s,-200,,,,,,,,,,,,,,,,,2,0,2,0,1,2,6,2,,,,,,,,,,,,,,,,,,,,,,,,885.559726,s,1,None,0,,,,,,,,,0.334136009216,,,,,,,,,,,,,,,,,,,,,1.1,0.513766050339,0.000991106033325,0.334136009216,1,s,888.560902119,,,,,,,,,,,,,,,,,,,,,,2015_Jun_03_1157,59.9747477997,LearningTask,1,1001,
200,s,-200,,,,,,,,,,,,,,,,,2,0,2,0,1,3,7,2,,,,,,,,,,,,,,,,,,,,,,,,888.562597036,s,1,None,0,,,,,,,,,0.617755174637,,,,,,,,,,,,,,,,,,,,,2.25,0.514410972595,0.000919103622437,0.617755174637,1,s,891.564195156,,,,,,,,,,,,,,,,,,,,,,2015_Jun_03_1157,59.9747477997,LearningTask,1,1001,
200,w,200,,,,,,,,,,,,,,,,,2,0,2,0,2,0,8,0,,,,,,,,,,,,,,,,,,,,,,,,891.565726995,w,1,None,0,,,,,,,,,0.318003892899,,,,,,,,,,,,,,,,,,,,,2.16,0.51433300972,0.000900030136108,0.318003892899,1,w,894.567918062,,,,,,,,,,,,,,,,,,,,,,2015_Jun_03_1157,59.9747477997,LearningTask,1,1001,
-200,a,-200,,,,,,,,,,,,,,,,,2,0,2,0,2,1,9,3,,,,,,,,,,,,,,,,,,,,,,,,894.569543123,a,1,None,0,,,,,,,,,0.351449966431,,,,,,,,,,,,,,,,,,,,,0.3,0.513833045959,0.00114107131958,0.351449966431,1,a,897.571587086,,,,,,,,,,,,,,,,,,,,,,2015_Jun_03_1157,59.9747477997,LearningTask,1,1001,
-200,a,-200,,,,,,,,,,,,,,,,,2,0,2,0,2,2,10,3,,,,,,,,,,,,,,,,,,,,,,,,897.573230028,a,1,None,0,,,,,,,,,0.367745161057,,,,,,,,,,,,,,,,,,,,,2.04,0.513538837433,0.000993013381958,0.367745161057,1,a,900.574470997,,,,,,,,,,,,,,,,,,,,,,2015_Jun_03_1157,59.9747477997,LearningTask,1,1001,
-200,a,-200,,,,,,,,,,,,,,,,,2,0,2,0,2,3,11,3,,,,,,,,,,,,,,,,,,,,,,,,900.576085091,a,1,None,0,,,,,,,,,0.367139101028,,,,,,,,,,,,,,,,,,,,,2.22,0.51455783844,0.000865936279297,0.367139101028,1,a,903.57753396,,,,,,,,,,,,,,,,,,,,,,2015_Jun_03_1157,59.9747477997,LearningTask,1,1001,
200,s,-200,,,,,,,,,,,,,,,,,2,0,2,0,3,0,12,2,,,,,,,,,,,,,,,,,,,,,,,,903.579060078,s,1,None,0,,,,,,,,,0.367501974106,,,,,,,,,,,,,,,,,,,,,0.58,0.514470100403,0.000926971435547,0.367501974106,1,s,906.580718994,,,,,,,,,,,,,,,,,,,,,,2015_Jun_03_1157,59.9747477997,LearningTask,1,1001,
200,w,200,,,,,,,,,,,,,,,,,2,0,2,0,3,1,13,0,,,,,,,,,,,,,,,,,,,,,,,,906.58249402,w,1,None,0,,,,,,,,,0.334285974503,,,,,,,,,,,,,,,,,,,,,4.2,0.514394044876,0.000923871994019,0.334285974503,1,w,909.58446908,,,,,,,,,,,,,,,,,,,,,,2015_Jun_03_1157,59.9747477997,LearningTask,1,1001,
200,w,200,,,,,,,,,,,,,,,,,2,0,2,0,3,2,14,0,,,,,,,,,,,,,,,,,,,,,,,,909.586050034,w,1,None,0,,,,,,,,,0.434438943863,,,,,,,,,,,,,,,,,,,,,2.02,0.514088153839,0.000927209854126,0.434438943863,1,w,912.587928057,,,,,,,,,,,,,,,,,,,,,,2015_Jun_03_1157,59.9747477997,LearningTask,1,1001,
-200,a,-200,,,,,,,,,,,,,,,,,2,0,2,0,3,3,15,3,,,,,,,,,,,,,,,,,,,,,,,,912.589626074,a,1,None,0,,,,,,,,,0.384177923203,,,,,,,,,,,,,,,,,,,,,4.24,0.513812065125,0.000944137573242,0.384177923203,1,a,915.591088057,,,,,,,,,,,,,,,,,,,,,,2015_Jun_03_1157,59.9747477997,LearningTask,1,1001,
200,w,200,,,,,,,,,,,,,,,,,2,0,2,0,4,0,16,0,,,,,,,,,,,,,,,,,,,,,,,,915.592722178,w,1,None,0,,,,,,,,,0.350704193115,,,,,,,,,,,,,,,,,,,,,3.96,0.514376878738,0.000879049301147,0.350704193115,1,w,918.594443083,,,,,,,,,,,,,,,,,,,,,,2015_Jun_03_1157,59.9747477997,LearningTask,1,1001,
-200,q,200,,,,,,,,,,,,,,,,,2,0,2,0,4,1,17,1,,,,,,,,,,,,,,,,,,,,,,,,918.596022129,q,1,None,0,,,,,,,,,0.384737968445,,,,,,,,,,,,,,,,,,,,,1.97,0.514184951782,0.000920057296753,0.384737968445,1,q,921.597754002,,,,,,,,,,,,,,,,,,,,,,2015_Jun_03_1157,59.9747477997,LearningTask,1,1001,
200,w,200,,,,,,,,,,,,,,,,,2,0,2,0,4,2,18,0,,,,,,,,,,,,,,,,,,,,,,,,921.599251032,w,1,None,0,,,,,,,,,0.350917100906,,,,,,,,,,,,,,,,,,,,,0.35,0.514479875565,0.000994920730591,0.350917100906,1,w,924.601332188,,,,,,,,,,,,,,,,,,,,,,2015_Jun_03_1157,59.9747477997,LearningTask,1,1001,
-200,q,200,,,,,,,,,,,,,,,,,2,0,2,0,4,3,19,1,,,,,,,,,,,,,,,,,,,,,,,,924.602863073,q,1,None,0,,,,,,,,,0.351169109344,,,,,,,,,,,,,,,,,,,,,1.99,0.514237880707,0.000932931900024,0.351169109344,1,q,927.604406118,,,,,,,,,,,,,,,,,,,,,,2015_Jun_03_1157,59.9747477997,LearningTask,1,1001,
200,s,-200,,,,,,,,,,,,,,,,,2,0,2,0,5,0,20,2,,,,,,,,,,,,,,,,,,,,,,,,927.606004,s,1,None,0,,,,,,,,,0.384212017059,,,,,,,,,,,,,,,,,,,,,1.0,0.514638185501,0.000866174697876,0.384212017059,1,s,930.607895136,,,,,,,,,,,,,,,,,,,,,,2015_Jun_03_1157,59.9747477997,LearningTask,1,1001,
-200,a,-200,,,,,,,,,,,,,,,,,2,0,2,0,5,1,21,3,,,,,,,,,,,,,,,,,,,,,,,,930.609479189,a,1,None,0,,,,,,,,,0.301059961319,,,,,,,,,,,,,,,,,,,,,1.12,0.514144897461,0.00094199180603,0.301059961319,1,a,933.611224174,,,,,,,,,,,,,,,,,,,,,,2015_Jun_03_1157,59.9747477997,LearningTask,1,1001,
200,s,-200,,,,,,,,,,,,,,,,,2,0,2,0,5,2,22,2,,,,,,,,,,,,,,,,,,,,,,,,933.612692118,s,1,None,0,,,,,,,,,0.334289073944,,,,,,,,,,,,,,,,,,,,,0.52,0.514705181122,0.00102519989014,0.334289073944,1,s,936.61472702,,,,,,,,,,,,,,,,,,,,,,2015_Jun_03_1157,59.9747477997,LearningTask,1,1001,
-200,q,200,,,,,,,,,,,,,,,,,2,0,2,0,5,3,23,1,,,,,,,,,,,,,,,,,,,,,,,,936.616286993,q,1,None,0,,,,,,,,,0.367235898972,,,,,,,,,,,,,,,,,,,,,3.82,0.514139890671,0.000890970230103,0.367235898972,1,q,939.617668152,,,,,,,,,,,,,,,,,,,,,,2015_Jun_03_1157,59.9747477997,LearningTask,1,1001,
-200,a,-200,,,,,,,,,,,,,,,,,2,0,2,0,6,0,24,3,,,,,,,,,,,,,,,,,,,,,,,,939.619274139,a,1,None,0,,,,,,,,,0.350754022598,,,,,,,,,,,,,,,,,,,,,4.01,0.514688968658,0.000890970230103,0.350754022598,1,a,942.621134043,,,,,,,,,,,,,,,,,,,,,,2015_Jun_03_1157,59.9747477997,LearningTask,1,1001,
200,s,-200,,,,,,,,,,,,,,,,,2,0,2,0,6,1,25,2,,,,,,,,,,,,,,,,,,,,,,,,942.622771025,s,1,None,0,,,,,,,,,0.351313829422,,,,,,,,,,,,,,,,,,,,,3.76,0.51435303688,0.000941038131714,0.351313829422,1,s,945.624752998,,,,,,,,,,,,,,,,,,,,,,2015_Jun_03_1157,59.9747477997,LearningTask,1,1001,
-200,a,-200,,,,,,,,,,,,,,,,,2,0,2,0,6,2,26,3,,,,,,,,,,,,,,,,,,,,,,,,945.626260996,a,1,None,0,,,,,,,,,0.400992155075,,,,,,,,,,,,,,,,,,,,,3.84,0.514199972153,0.00100493431091,0.400992155075,1,a,948.628342152,,,,,,,,,,,,,,,,,,,,,,2015_Jun_03_1157,59.9747477997,LearningTask,1,1001,
200,w,200,,,,,,,,,,,,,,,,,2,0,2,0,6,3,27,0,,,,,,,,,,,,,,,,,,,,,,,,948.629997015,w,1,None,0,,,,,,,,,0.367391109467,,,,,,,,,,,,,,,,,,,,,0.75,0.514103889465,0.000976800918579,0.367391109467,1,w,951.631200075,,,,,,,,,,,,,,,,,,,,,,2015_Jun_03_1157,59.9747477997,LearningTask,1,1001,
-200,a,-200,,,,,,,,,,,,,,,,,2,0,2,0,7,0,28,3,,,,,,,,,,,,,,,,,,,,,,,,951.632889986,a,1,None,0,,,,,,,,,0.401447057724,,,,,,,,,,,,,,,,,,,,,1.93,0.514287948608,0.000869035720825,0.401447057724,1,a,954.634615183,,,,,,,,,,,,,,,,,,,,,,2015_Jun_03_1157,59.9747477997,LearningTask,1,1001,
200,w,200,,,,,,,,,,,,,,,,,2,0,2,0,7,1,29,0,,,,,,,,,,,,,,,,,,,,,,,,954.636176109,w,1,None,0,,,,,,,,,0.384552955627,,,,,,,,,,,,,,,,,,,,,3.94,0.514347076416,0.000910043716431,0.384552955627,1,w,957.638112068,,,,,,,,,,,,,,,,,,,,,,2015_Jun_03_1157,59.9747477997,LearningTask,1,1001,
200,s,-200,,,,,,,,,,,,,,,,,2,0,2,0,7,2,30,2,,,,,,,,,,,,,,,,,,,,,,,,957.639639139,s,1,q,0,0.657934904099,,,,,,,,0.350974082947,,,,,,,,,,,,,,,,,,,,,0.91,0.514235973358,0.00103402137756,0.350974082947,1,s,960.641574144,,,,,,,,,,,,,,,,,,,,,,2015_Jun_03_1157,59.9747477997,LearningTask,1,1001,
200,w,200,,,,,,,,,,,,,,,,,2,0,2,0,7,3,31,0,,,,,,,,,,,,,,,,,,,,,,,,960.643198013,w,1,None,0,,,,,,,,,0.350831985474,,,,,,,,,,,,,,,,,,,,,2.01,0.514307975769,0.00111603736877,0.350831985474,1,w,963.644466162,,,,,,,,,,,,,,,,,,,,,,2015_Jun_03_1157,59.9747477997,LearningTask,1,1001,
200,s,-200,,,,,,,,,,,,,,,,,2,0,2,0,8,0,32,2,,,,,,,,,,,,,,,,,,,,,,,,963.646119118,s,1,None,0,,,,,,,,,0.33377289772,,,,,,,,,,,,,,,,,,,,,1.8,0.514804124832,0.000948190689087,0.33377289772,1,s,966.648018122,,,,,,,,,,,,,,,,,,,,,,2015_Jun_03_1157,59.9747477997,LearningTask,1,1001,
200,s,-200,,,,,,,,,,,,,,,,,2,0,2,0,8,1,33,2,,,,,,,,,,,,,,,,,,,,,,,,966.649620056,s,1,None,0,,,,,,,,,0.35046005249,,,,,,,,,,,,,,,,,,,,,1.94,0.514322042465,0.000929117202759,0.35046005249,1,s,969.651499033,,,,,,,,,,,,,,,,,,,,,,2015_Jun_03_1157,59.9747477997,LearningTask,1,1001,
200,s,-200,,,,,,,,,,,,,,,,,2,0,2,0,8,2,34,2,,,,,,,,,,,,,,,,,,,,,,,,969.652940989,s,1,None,0,,,,,,,,,0.517776012421,,,,,,,,,,,,,,,,,,,,,4.08,0.514441013336,0.00100207328796,0.517776012421,1,s,972.655068159,,,,,,,,,,,,,,,,,,,,,,2015_Jun_03_1157,59.9747477997,LearningTask,1,1001,
-200,q,200,,,,,,,,,,,,,,,,,2,0,2,0,8,3,35,1,,,,,,,,,,,,,,,,,,,,,,,,972.656588078,q,1,None,0,,,,,,,,,0.350798845291,,,,,,,,,,,,,,,,,,,,,1.23,0.514208078384,0.000920057296753,0.350798845291,1,q,975.657998085,,,,,,,,,,,,,,,,,,,,,,2015_Jun_03_1157,59.9747477997,LearningTask,1,1001,
-200,q,200,,,,,,,,,,,,,,,,,2,0,2,0,9,0,36,1,,,,,,,,,,,,,,,,,,,,,,,,975.659658194,q,1,None,0,,,,,,,,,0.400886774063,,,,,,,,,,,,,,,,,,,,,1.82,0.514641046524,0.000869035720825,0.400886774063,1,q,978.661403179,,,,,,,,,,,,,,,,,,,,,,2015_Jun_03_1157,59.9747477997,LearningTask,1,1001,
-200,q,200,,,,,,,,,,,,,,,,,2,0,2,0,9,1,37,1,,,,,,,,,,,,,,,,,,,,,,,,978.663022995,q,1,None,0,,,,,,,,,0.33412194252,,,,,,,,,,,,,,,,,,,,,4.09,0.514347076416,0.000911951065063,0.33412194252,1,q,981.664926052,,,,,,,,,,,,,,,,,,,,,,2015_Jun_03_1157,59.9747477997,LearningTask,1,1001,
200,s,-200,,,,,,,,,,,,,,,,,2,0,2,0,9,2,38,2,,,,,,,,,,,,,,,,,,,,,,,,981.666378975,s,1,None,0,,,,,,,,,0.3510658741,,,,,,,,,,,,,,,,,,,,,4.0,0.514533996582,0.00103211402893,0.3510658741,1,s,984.668207169,,,,,,,,,,,,,,,,,,,,,,2015_Jun_03_1157,59.9747477997,LearningTask,1,1001,
-200,q,200,,,,,,,,,,,,,,,,,2,0,2,0,9,3,39,1,,,,,,,,,,,,,,,,,,,,,,,,984.669821978,q,1,None,0,,,,,,,,,0.30125784874,,,,,,,,,,,,,,,,,,,,,0.93,0.514420032501,0.000918865203857,0.30125784874,1,q,987.671619177,,,,,,,,,,,,,,,,,,,,,,2015_Jun_03_1157,59.9747477997,LearningTask,1,1001,
-200,a,-200,,,,,,,,,,,,,,,,,2,0,2,0,10,0,40,3,,,,,,,,,,,,,,,,,,,,,,,,987.673251152,a,1,None,0,,,,,,,,,0.384388923645,,,,,,,,,,,,,,,,,,,,,3.94,0.514479160309,0.000885009765625,0.384388923645,1,a,990.674795151,,,,,,,,,,,,,,,,,,,,,,2015_Jun_03_1157,59.9747477997,LearningTask,1,1001,
-200,a,-200,,,,,,,,,,,,,,,,,2,0,2,0,10,1,41,3,,,,,,,,,,,,,,,,,,,,,,,,990.676426172,a,1,None,0,,,,,,,,,0.384642839432,,,,,,,,,,,,,,,,,,,,,3.76,0.514338970184,0.000946998596191,0.384642839432,1,a,993.678442001,,,,,,,,,,,,,,,,,,,,,,2015_Jun_03_1157,59.9747477997,LearningTask,1,1001,
-200,q,200,,,,,,,,,,,,,,,,,2,0,2,0,10,2,42,1,,,,,,,,,,,,,,,,,,,,,,,,993.679903984,q,1,None,0,,,,,,,,,0.317216157913,,,,,,,,,,,,,,,,,,,,,4.07,0.514482021332,0.00110006332397,0.317216157913,1,q,996.681813002,,,,,,,,,,,,,,,,,,,,,,2015_Jun_03_1157,59.9747477997,LearningTask,1,1001,
-200,a,-200,,,,,,,,,,,,,,,,,2,0,2,0,10,3,43,3,,,,,,,,,,,,,,,,,,,,,,,,996.683333158,a,1,None,0,,,,,,,,,0.367151975632,,,,,,,,,,,,,,,,,,,,,4.17,0.514232873917,0.000891923904419,0.367151975632,1,a,999.684818029,,,,,,,,,,,,,,,,,,,,,,2015_Jun_03_1157,59.9747477997,LearningTask,1,1001,
-200,q,200,,,,,,,,,,,,,,,,,2,0,2,0,11,0,44,1,,,,,,,,,,,,,,,,,,,,,,,,999.686441183,q,1,None,0,,,,,,,,,0.351021051407,,,,,,,,,,,,,,,,,,,,,1.82,0.514798164368,0.000884056091309,0.351021051407,1,q,1002.68835998,,,,,,,,,,,,,,,,,,,,,,2015_Jun_03_1157,59.9747477997,LearningTask,1,1001,
200,w,200,,,,,,,,,,,,,,,,,2,0,2,0,11,1,45,0,,,,,,,,,,,,,,,,,,,,,,,,1002.69000196,w,1,None,0,,,,,,,,,0.36764216423,,,,,,,,,,,,,,,,,,,,,2.22,0.514226913452,0.00092887878418,0.36764216423,1,w,1005.6915741,,,,,,,,,,,,,,,,,,,,,,2015_Jun_03_1157,59.9747477997,LearningTask,1,1001,
200,s,-200,,,,,,,,,,,,,,,,,2,0,2,0,11,2,46,2,,,,,,,,,,,,,,,,,,,,,,,,1005.69328809,s,1,None,0,,,,,,,,,0.334357976913,,,,,,,,,,,,,,,,,,,,,0.32,0.514168024063,0.00101399421692,0.334357976913,1,s,1008.69526005,,,,,,,,,,,,,,,,,,,,,,2015_Jun_03_1157,59.9747477997,LearningTask,1,1001,
200,w,200,,,,,,,,,,,,,,,,,2,0,2,0,11,3,47,0,,,,,,,,,,,,,,,,,,,,,,,,1008.69680905,w,1,None,0,,,,,,,,,0.401257991791,,,,,,,,,,,,,,,,,,,,,3.81,0.51429605484,0.00088906288147,0.401257991791,1,w,1011.69823909,,,,,,,,,,,,,,,,,,,,,,2015_Jun_03_1157,59.9747477997,LearningTask,1,1001,
-200,q,200,,,,,,,,,,,,,,,,,2,0,2,0,12,0,48,1,,,,,,,,,,,,,,,,,,,,,,,,1011.69978905,q,1,None,0,,,,,,,,,0.367839097977,,,,,,,,,,,,,,,,,,,,,4.16,0.514794826508,0.000905990600586,0.367839097977,1,q,1014.70195413,,,,,,,,,,,,,,,,,,,,,,2015_Jun_03_1157,59.9747477997,LearningTask,1,1001,
200,w,200,,,,,,,,,,,,,,,,,2,0,2,0,12,1,49,0,,,,,,,,,,,,,,,,,,,,,,,,1014.70357013,w,1,None,0,,,,,,,,,0.450501918793,,,,,,,,,,,,,,,,,,,,,4.19,0.514798164368,0.00101613998413,0.450501918793,1,w,1017.70580006,,,,,,,,,,,,,,,,,,,,,,2015_Jun_03_1157,59.9747477997,LearningTask,1,1001,
200,w,200,,,,,,,,,,,,,,,,,2,0,2,0,12,2,50,0,,,,,,,,,,,,,,,,,,,,,,,,1017.70753598,w,1,None,0,,,,,,,,,0.367523193359,,,,,,,,,,,,,,,,,,,,,4.13,0.513562917709,0.000936985015869,0.367523193359,1,w,1020.70875406,,,,,,,,,,,,,,,,,,,,,,2015_Jun_03_1157,59.9747477997,LearningTask,1,1001,
-200,q,200,,,,,,,,,,,,,,,,,2,0,2,0,12,3,51,1,,,,,,,,,,,,,,,,,,,,,,,,1020.71036601,q,1,None,0,,,,,,,,,0.33446598053,,,,,,,,,,,,,,,,,,,,,0.54,0.513964891434,0.000914812088013,0.33446598053,1,q,1023.71185708,,,,,,,,,,,,,,,,,,,,,,2015_Jun_03_1157,59.9747477997,LearningTask,1,1001,
-200,q,200,,,,,,,,,,,,,,,,,2,0,2,0,13,0,52,1,,,,,,,,,,,,,,,,,,,,,,,,1023.71353006,q,1,None,0,,,,,,,,,0.300711870193,,,,,,,,,,,,,,,,,,,,,0.96,0.514435052872,0.000897884368896,0.300711870193,1,q,1026.71524906,,,,,,,,,,,,,,,,,,,,,,2015_Jun_03_1157,59.9747477997,LearningTask,1,1001,
-200,a,-200,,,,,,,,,,,,,,,,,2,0,2,0,13,1,53,3,,,,,,,,,,,,,,,,,,,,,,,,1026.71675801,a,1,None,0,,,,,,,,,0.567905902863,,,,,,,,,,,,,,,,,,,,,4.12,0.514276027679,0.000967979431152,0.567905902863,1,a,1029.71881914,,,,,,,,,,,,,,,,,,,,,,2015_Jun_03_1157,59.9747477997,LearningTask,1,1001,
200,w,200,,,,,,,,,,,,,,,,,2,0,2,0,13,2,54,0,,,,,,,,,,,,,,,,,,,,,,,,1029.72047019,w,1,None,0,,,,,,,,,0.417543888092,,,,,,,,,,,,,,,,,,,,,4.08,0.514012813568,0.000934839248657,0.417543888092,1,w,1032.72223711,,,,,,,,,,,,,,,,,,,,,,2015_Jun_03_1157,59.9747477997,LearningTask,1,1001,
-200,q,200,,,,,,,,,,,,,,,,,2,0,2,0,13,3,55,1,,,,,,,,,,,,,,,,,,,,,,,,1032.72385001,q,1,None,0,,,,,,,,,0.300946950912,,,,,,,,,,,,,,,,,,,,,0.25,0.513772010803,0.000921964645386,0.300946950912,1,q,1035.72551703,,,,,,,,,,,,,,,,,,,,,,2015_Jun_03_1157,59.9747477997,LearningTask,1,1001,
200,w,200,,,,,,,,,,,,,,,,,2,0,2,0,14,0,56,0,,,,,,,,,,,,,,,,,,,,,,,,1038.72876716,w,1,None,0,,,,,,,,,0.334259986877,,,,,,,,,,,,,,,,,,,,,1.9,0.51420211792,0.000963926315308,0.317747831345,0,s,1038.728477,1.93,0.515818119049,0.000963926315308,0.334259986877,1,w,1041.7327261,,,,,,,,,,,,,,,2015_Jun_03_1157,59.9747477997,LearningTask,1,1001,
200,s,-200,,,,,,,,,,,,,,,,,2,0,2,0,14,1,57,2,,,,,,,,,,,,,,,,,,,,,,,,1041.73436499,s,1,None,0,,,,,,,,,0.36786198616,,,,,,,,,,,,,,,,,,,,,3.93,0.513557910919,0.00103807449341,0.36786198616,1,s,1044.73525906,,,,,,,,,,,,,,,,,,,,,,2015_Jun_03_1157,59.9747477997,LearningTask,1,1001,
200,s,-200,,,,,,,,,,,,,,,,,2,0,2,0,14,2,58,2,,,,,,,,,,,,,,,,,,,,,,,,1044.73681712,s,1,None,0,,,,,,,,,0.367553949356,,,,,,,,,,,,,,,,,,,,,1.17,0.514503002167,0.00087308883667,0.367553949356,1,s,1047.738832,,,,,,,,,,,,,,,,,,,,,,2015_Jun_03_1157,59.9747477997,LearningTask,1,1001,
200,w,200,,,,,,,,,,,,,,,,,2,0,2,0,14,3,59,0,,,,,,,,,,,,,,,,,,,,,,,,1047.74040198,w,1,None,0,,,,,,,,,0.417795181274,,,,,,,,,,,,,,,,,,,,,0.29,0.514061927795,0.00102305412292,0.417795181274,1,w,1050.74253106,,,,,,,,,,,,,,,,,,,,,,2015_Jun_03_1157,59.9747477997,LearningTask,1,1001,
-200,a,-200,,,,,,,,,,,,,,,,,2,0,2,0,15,0,60,3,,,,,,,,,,,,,,,,,,,,,,,,1050.74414015,a,1,None,0,,,,,,,,,0.367300033569,,,,,,,,,,,,,,,,,,,,,0.92,0.513950109482,0.000910043716431,0.367300033569,1,a,1053.74566007,,,,,,,,,,,,,,,,,,,,,,2015_Jun_03_1157,59.9747477997,LearningTask,1,1001,
200,w,200,,,,,,,,,,,,,,,,,2,0,2,0,15,1,61,0,,,,,,,,,,,,,,,,,,,,,,,,1053.7471981,w,1,None,0,,,,,,,,,0.367840051651,,,,,,,,,,,,,,,,,,,,,0.62,0.514228105545,0.000981092453003,0.367840051651,1,w,1056.74872398,,,,,,,,,,,,,,,,,,,,,,2015_Jun_03_1157,59.9747477997,LearningTask,1,1001,
-200,q,200,,,,,,,,,,,,,,,,,2,0,2,0,15,2,62,1,,,,,,,,,,,,,,,,,,,,,,,,1056.7503531,q,1,None,0,,,,,,,,,0.300738096237,,,,,,,,,,,,,,,,,,,,,0.44,0.514490127563,0.000895023345947,0.300738096237,1,q,1059.75227499,,,,,,,,,,,,,,,,,,,,,,2015_Jun_03_1157,59.9747477997,LearningTask,1,1001,
-200,q,200,,,,,,,,,,,,,,,,,2,0,2,0,15,3,63,1,,,,,,,,,,,,,,,,,,,,,,,,1059.75385213,q,1,None,0,,,,,,,,,0.35084605217,,,,,,,,,,,,,,,,,,,,,0.68,0.514353990555,0.000890970230103,0.35084605217,1,q,1062.75542116,,,,,,,,,,,,,,,,,,,,,,2015_Jun_03_1157,59.9747477997,LearningTask,1,1001,
-200,q,200,,,,,,,,,,,,,,,,,2,0,2,0,16,0,64,1,,,,,,,,,,,,,,,,,,,,,,,,1062.75700116,q,1,None,0,,,,,,,,,0.333665847778,,,,,,,,,,,,,,,,,,,,,3.85,0.514495849609,0.000934839248657,0.333665847778,1,q,1065.75902915,,,,,,,,,,,,,,,,,,,,,,2015_Jun_03_1157,59.9747477997,LearningTask,1,1001,
-200,a,-200,,,,,,,,,,,,,,,,,2,0,2,0,16,1,65,3,,,,,,,,,,,,,,,,,,,,,,,,1065.76055217,a,1,q,0,0.441306114197,,,,,,,,0.534049034119,,,,,,,,,,,,,,,,,,,,,0.34,0.514636039734,0.000974178314209,0.534049034119,1,a,1068.7624681,,,,,,,,,,,,,,,,,,,,,,2015_Jun_03_1157,59.9747477997,LearningTask,1,1001,
200,w,200,,,,,,,,,,,,,,,,,2,0,2,0,16,2,66,0,,,,,,,,,,,,,,,,,,,,,,,,1068.76404905,w,1,None,0,,,,,,,,,0.300675868988,,,,,,,,,,,,,,,,,,,,,1.09,0.514065980911,0.000894784927368,0.300675868988,1,w,1071.76561403,,,,,,,,,,,,,,,,,,,,,,2015_Jun_03_1157,59.9747477997,LearningTask,1,1001,
200,s,-200,,,,,,,,,,,,,,,,,2,0,2,0,16,3,67,2,,,,,,,,,,,,,,,,,,,,,,,,1071.76717615,s,1,None,0,,,,,,,,,0.367264986038,,,,,,,,,,,,,,,,,,,,,1.92,0.514572143555,0.00111699104309,0.367264986038,1,s,1074.76914501,,,,,,,,,,,,,,,,,,,,,,2015_Jun_03_1157,59.9747477997,LearningTask,1,1001,
-200,a,-200,,,,,,,,,,,,,,,,,2,0,2,0,17,0,68,3,,,,,,,,,,,,,,,,,,,,,,,,1074.77078915,a,1,None,0,,,,,,,,,0.351102113724,,,,,,,,,,,,,,,,,,,,,0.35,0.51405787468,0.00103497505188,0.351102113724,1,a,1077.77223396,,,,,,,,,,,,,,,,,,,,,,2015_Jun_03_1157,59.9747477997,LearningTask,1,1001,
-200,a,-200,,,,,,,,,,,,,,,,,2,0,2,0,17,1,69,3,,,,,,,,,,,,,,,,,,,,,,,,1080.77611303,a,1,None,0,,,,,,,,,0.300984859467,,,,,,,,,,,,,,,,,,,,,1.86,0.514527797699,0.000939846038818,0.38380408287,0,s,1080.77578807,2.24,0.515250921249,0.000967025756836,0.300984859467,1,a,1083.77895498,,,,,,,,,,,,,,,2015_Jun_03_1157,59.9747477997,LearningTask,1,1001,
200,s,-200,,,,,,,,,,,,,,,,,2,0,2,0,17,2,70,2,,,,,,,,,,,,,,,,,,,,,,,,1083.78050518,s,1,None,0,,,,,,,,,0.38440489769,,,,,,,,,,,,,,,,,,,,,0.81,0.514657020569,0.00112986564636,0.38440489769,1,s,1086.78269911,,,,,,,,,,,,,,,,,,,,,,2015_Jun_03_1157,59.9747477997,LearningTask,1,1001,
200,s,-200,,,,,,,,,,,,,,,,,2,0,2,0,17,3,71,2,,,,,,,,,,,,,,,,,,,,,,,,1086.78430104,s,1,None,0,,,,,,,,,0.351329088211,,,,,,,,,,,,,,,,,,,,,0.99,0.513906002045,0.000957012176514,0.351329088211,1,s,1089.78603005,,,,,,,,,,,,,,,,,,,,,,2015_Jun_03_1157,59.9747477997,LearningTask,1,1001,
-200,q,200,,,,,,,,,,,,,,,,,2,0,2,0,18,0,72,1,,,,,,,,,,,,,,,,,,,,,,,,1089.787606,q,1,None,0,,,,,,,,,0.384108066559,,,,,,,,,,,,,,,,,,,,,1.04,0.514093875885,0.000932931900024,0.384108066559,1,q,1092.78899407,,,,,,,,,,,,,,,,,,,,,,2015_Jun_03_1157,59.9747477997,LearningTask,1,1001,
-200,q,200,,,,,,,,,,,,,,,,,2,0,2,0,18,1,73,1,,,,,,,,,,,,,,,,,,,,,,,,1092.790591,q,1,None,0,,,,,,,,,0.451184988022,,,,,,,,,,,,,,,,,,,,,0.99,0.514538049698,0.000886917114258,0.451184988022,1,q,1095.79233503,,,,,,,,,,,,,,,,,,,,,,2015_Jun_03_1157,59.9747477997,LearningTask,1,1001,
-200,q,200,,,,,,,,,,,,,,,,,2,0,2,0,18,2,74,1,,,,,,,,,,,,,,,,,,,,,,,,1095.79398513,q,1,None,0,,,,,,,,,0.351056814194,,,,,,,,,,,,,,,,,,,,,0.52,0.514267206192,0.000938177108765,0.351056814194,1,q,1098.79607105,,,,,,,,,,,,,,,,,,,,,,2015_Jun_03_1157,59.9747477997,LearningTask,1,1001,
200,w,200,,,,,,,,,,,,,,,,,2,0,2,0,18,3,75,0,,,,,,,,,,,,,,,,,,,,,,,,1098.79765201,w,1,None,0,,,,,,,,,0.38463807106,,,,,,,,,,,,,,,,,,,,,1.99,0.513895988464,0.00094199180603,0.38463807106,1,w,1101.7993381,,,,,,,,,,,,,,,,,,,,,,2015_Jun_03_1157,59.9747477997,LearningTask,1,1001,
200,s,-200,,,,,,,,,,,,,,,,,2,0,2,0,19,0,76,2,,,,,,,,,,,,,,,,,,,,,,,,1101.80088997,s,1,None,0,,,,,,,,,0.367847919464,,,,,,,,,,,,,,,,,,,,,3.9,0.514043092728,0.000930070877075,0.367847919464,1,s,1104.80277419,,,,,,,,,,,,,,,,,,,,,,2015_Jun_03_1157,59.9747477997,LearningTask,1,1001,
-200,a,-200,,,,,,,,,,,,,,,,,2,0,2,0,19,1,77,3,,,,,,,,,,,,,,,,,,,,,,,,1104.80455613,a,1,None,0,,,,,,,,,0.450716972351,,,,,,,,,,,,,,,,,,,,,1.2,0.513929128647,0.000926971435547,0.450716972351,1,a,1107.80577016,,,,,,,,,,,,,,,,,,,,,,2015_Jun_03_1157,59.9747477997,LearningTask,1,1001,
200,s,-200,,,,,,,,,,,,,,,,,2,0,2,0,19,2,78,2,,,,,,,,,,,,,,,,,,,,,,,,1107.80736613,s,1,None,0,,,,,,,,,0.334707021713,,,,,,,,,,,,,,,,,,,,,1.81,0.514346837997,0.000921964645386,0.334707021713,1,s,1110.80926704,,,,,,,,,,,,,,,,,,,,,,2015_Jun_03_1157,59.9747477997,LearningTask,1,1001,
-200,a,-200,,,,,,,,,,,,,,,,,2,0,2,0,19,3,79,3,,,,,,,,,,,,,,,,,,,,,,,,1110.81078601,a,1,None,0,,,,,,,,,0.384809017181,,,,,,,,,,,,,,,,,,,,,0.56,0.51424407959,0.000984191894531,0.384809017181,1,a,1113.81274915,,,,,,,,,,,,,,,,,,,,,,2015_Jun_03_1157,59.9747477997,LearningTask,1,1001,
-200,q,200,,,,,,,,,,,,,,,,,2,0,2,0,20,0,80,1,,,,,,,,,,,,,,,,,,,,,,,,1113.81424999,q,1,None,0,,,,,,,,,0.500518798828,,,,,,,,,,,,,,,,,,,,,1.04,0.514268875122,0.000943899154663,0.500518798828,1,q,1116.8159101,,,,,,,,,,,,,,,,,,,,,,2015_Jun_03_1157,59.9747477997,LearningTask,1,1001,
-200,a,-200,,,,,,,,,,,,,,,,,2,0,2,0,20,1,81,3,,,,,,,,,,,,,,,,,,,,,,,,1116.81749201,a,1,None,0,,,,,,,,,0.384441137314,,,,,,,,,,,,,,,,,,,,,4.0,0.514457941055,0.00097393989563,0.384441137314,1,a,1119.81963801,,,,,,,,,,,,,,,,,,,,,,2015_Jun_03_1157,59.9747477997,LearningTask,1,1001,
200,s,-200,,,,,,,,,,,,,,,,,2,0,2,0,20,2,82,2,,,,,,,,,,,,,,,,,,,,,,,,1119.82126808,s,1,None,0,,,,,,,,,0.384249925613,,,,,,,,,,,,,,,,,,,,,3.99,0.514136791229,0.000891923904419,0.384249925613,1,s,1122.8229351,,,,,,,,,,,,,,,,,,,,,,2015_Jun_03_1157,59.9747477997,LearningTask,1,1001,
200,w,200,,,,,,,,,,,,,,,,,2,0,2,0,20,3,83,0,,,,,,,,,,,,,,,,,,,,,,,,1122.8246882,w,1,None,0,,,,,,,,,0.384545087814,,,,,,,,,,,,,,,,,,,,,0.96,0.513731956482,0.00101590156555,0.384545087814,1,w,1125.82619905,,,,,,,,,,,,,,,,,,,,,,2015_Jun_03_1157,59.9747477997,LearningTask,1,1001,
200,s,-200,,,,,,,,,,,,,,,,,2,0,2,0,21,0,84,2,,,,,,,,,,,,,,,,,,,,,,,,1125.82785416,s,1,None,0,,,,,,,,,0.367802143097,,,,,,,,,,,,,,,,,,,,,1.06,0.514096021652,0.000931024551392,0.367802143097,1,s,1128.82951713,,,,,,,,,,,,,,,,,,,,,,2015_Jun_03_1157,59.9747477997,LearningTask,1,1001,
200,s,-200,,,,,,,,,,,,,,,,,2,0,2,0,21,1,85,2,,,,,,,,,,,,,,,,,,,,,,,,1128.83117008,s,1,None,0,,,,,,,,,0.367249011993,,,,,,,,,,,,,,,,,,,,,0.8,0.514440059662,0.000931024551392,0.367249011993,1,s,1131.83252907,,,,,,,,,,,,,,,,,,,,,,2015_Jun_03_1157,59.9747477997,LearningTask,1,1001,
-200,a,-200,,,,,,,,,,,,,,,,,2,0,2,0,21,2,86,3,,,,,,,,,,,,,,,,,,,,,,,,1131.83417416,a,1,None,0,,,,,,,,,0.367256164551,,,,,,,,,,,,,,,,,,,,,1.08,0.514750003815,0.000888109207153,0.367256164551,1,a,1134.836164,,,,,,,,,,,,,,,,,,,,,,2015_Jun_03_1157,59.9747477997,LearningTask,1,1001,
200,s,-200,,,,,,,,,,,,,,,,,2,0,2,0,21,3,87,2,,,,,,,,,,,,,,,,,,,,,,,,1134.837708,s,1,None,0,,,,,,,,,0.46839594841,,,,,,,,,,,,,,,,,,,,,0.4,0.514065027237,0.000929117202759,0.46839594841,1,s,1137.83953905,,,,,,,,,,,,,,,,,,,,,,2015_Jun_03_1157,59.9747477997,LearningTask,1,1001,
-200,q,200,,,,,,,,,,,,,,,,,2,0,2,0,22,0,88,1,,,,,,,,,,,,,,,,,,,,,,,,1137.84107709,q,1,None,0,,,,,,,,,0.568300962448,,,,,,,,,,,,,,,,,,,,,1.13,0.514152050018,0.00101208686829,0.568300962448,1,q,1140.8428061,,,,,,,,,,,,,,,,,,,,,,2015_Jun_03_1157,59.9747477997,LearningTask,1,1001,
-200,q,200,,,,,,,,,,,,,,,,,2,0,2,0,22,1,89,1,,,,,,,,,,,,,,,,,,,,,,,,1140.84443712,q,1,None,0,,,,,,,,,0.317503929138,,,,,,,,,,,,,,,,,,,,,0.9,0.514302015305,0.000874996185303,0.317503929138,1,q,1143.84623218,,,,,,,,,,,,,,,,,,,,,,2015_Jun_03_1157,59.9747477997,LearningTask,1,1001,
200,w,200,,,,,,,,,,,,,,,,,2,0,2,0,22,2,90,0,,,,,,,,,,,,,,,,,,,,,,,,1143.84783006,w,1,None,0,,,,,,,,,0.433766841888,,,,,,,,,,,,,,,,,,,,,2.18,0.514586925507,0.000992059707642,0.433766841888,1,w,1146.84932208,,,,,,,,,,,,,,,,,,,,,,2015_Jun_03_1157,59.9747477997,LearningTask,1,1001,
-200,a,-200,,,,,,,,,,,,,,,,,2,0,2,0,22,3,91,3,,,,,,,,,,,,,,,,,,,,,,,,1146.85093117,a,1,None,0,,,,,,,,,0.384114027023,,,,,,,,,,,,,,,,,,,,,3.78,0.514433145523,0.000944137573242,0.384114027023,1,a,1149.85294604,,,,,,,,,,,,,,,,,,,,,,2015_Jun_03_1157,59.9747477997,LearningTask,1,1001,
-200,a,-200,,,,,,,,,,,,,,,,,2,0,2,0,23,0,92,3,,,,,,,,,,,,,,,,,,,,,,,,1149.85447502,a,1,None,0,,,,,,,,,0.368086099625,,,,,,,,,,,,,,,,,,,,,4.2,0.514111995697,0.000936985015869,0.368086099625,1,a,1152.85633206,,,,,,,,,,,,,,,,,,,,,,2015_Jun_03_1157,59.9747477997,LearningTask,1,1001,
-200,a,-200,,,,,,,,,,,,,,,,,2,0,2,0,23,1,93,3,,,,,,,,,,,,,,,,,,,,,,,,1152.85788608,a,1,None,0,,,,,,,,,0.385026931763,,,,,,,,,,,,,,,,,,,,,2.1,0.51401591301,0.000969886779785,0.385026931763,1,a,1155.85954118,,,,,,,,,,,,,,,,,,,,,,2015_Jun_03_1157,59.9747477997,LearningTask,1,1001,
200,w,200,,,,,,,,,,,,,,,,,2,0,2,0,23,2,94,0,,,,,,,,,,,,,,,,,,,,,,,,1155.86110401,w,1,None,0,,,,,,,,,0.317425966263,,,,,,,,,,,,,,,,,,,,,4.1,0.514709949493,0.000890970230103,0.317425966263,1,w,1158.8628881,,,,,,,,,,,,,,,,,,,,,,2015_Jun_03_1157,59.9747477997,LearningTask,1,1001,
200,w,200,,,,,,,,,,,,,,,,,2,0,2,0,23,3,95,0,,,,,,,,,,,,,,,,,,,,,,,,1158.86451006,w,1,None,0,,,,,,,,,0.367921113968,,,,,,,,,,,,,,,,,,,,,2.05,0.514302968979,0.000914096832275,0.367921113968,1,w,1161.86628509,,,,,,,,,,,,,,,,,,,,,,2015_Jun_03_1157,59.9747477997,LearningTask,1,1001,
-200,q,200,,,,,,,,,,,,,,,,,2,0,2,0,24,0,96,1,,,,,,,,,,,,,,,,,,,,,,,,1161.86783004,q,1,None,0,,,,,,,,,0.334712982178,,,,,,,,,,,,,,,,,,,,,1.0,0.514328956604,0.000929117202759,0.334712982178,1,q,1164.86974216,,,,,,,,,,,,,,,,,,,,,,2015_Jun_03_1157,59.9747477997,LearningTask,1,1001,
200,w,200,,,,,,,,,,,,,,,,,2,0,2,0,24,1,97,0,,,,,,,,,,,,,,,,,,,,,,,,1164.87127709,w,1,None,0,,,,,,,,,0.351235151291,,,,,,,,,,,,,,,,,,,,,0.98,0.514087915421,0.000951051712036,0.351235151291,1,w,1167.87302399,,,,,,,,,,,,,,,,,,,,,,2015_Jun_03_1157,59.9747477997,LearningTask,1,1001,
-200,q,200,,,,,,,,,,,,,,,,,2,0,2,0,24,2,98,1,,,,,,,,,,,,,,,,,,,,,,,,1167.87467408,q,1,None,0,,,,,,,,,0.350876092911,,,,,,,,,,,,,,,,,,,,,2.23,0.514338970184,0.000972032546997,0.350876092911,1,q,1170.87669301,,,,,,,,,,,,,,,,,,,,,,2015_Jun_03_1157,59.9747477997,LearningTask,1,1001,
200,w,200,,,,,,,,,,,,,,,,,2,0,2,0,24,3,99,0,,,,,,,,,,,,,,,,,,,,,,,,1170.87851,w,1,None,0,,,,,,,,,0.350903987885,,,,,,,,,,,,,,,,,,,,,1.2,0.513740777969,0.000935792922974,0.350903987885,1,w,1173.87977219,,,,,,,,,,,,,,,,,,,,,,2015_Jun_03_1157,59.9747477997,LearningTask,1,1001,
,,,,,,,,,,,,,,,,,,,2,0,2,0,,,,,,,,,,,,,,,,,,,,,,,,,,,,,,,,,,,,,,,,,,,,,,,,,,,,,,,,,,,,,,,,,,,,,,,,,,,,9,42.0867590904,,,,,,,,,,,,,2015_Jun_03_1157,59.9747477997,LearningTask,1,1001,
-200,q,200,,,,,,,,,,,,,,,,,3,0,3,0,0,0,0,1,,,,,,,,,,,,,,,,,,,,,,,,1216.80048418,q,1,None,0,,,,,,,,,0.451133012772,,,,,,,,,,,,,,,,,,,,,1.93,0.509866952896,0.000978946685791,0.451133012772,1,q,1219.79795718,,,,,,,,,,,,,,,,,,,,,,2015_Jun_03_1157,59.9747477997,LearningTask,1,1001,
200,s,-200,,,,,,,,,,,,,,,,,3,0,3,0,0,1,1,2,,,,,,,,,,,,,,,,,,,,,,,,1219.79950905,s,1,None,0,,,,,,,,,0.350568056107,,,,,,,,,,,,,,,,,,,,,0.87,0.514250040054,0.000907897949219,0.350568056107,1,s,1222.80115509,,,,,,,,,,,,,,,,,,,,,,2015_Jun_03_1157,59.9747477997,LearningTask,1,1001,
-200,a,-200,,,,,,,,,,,,,,,,,3,0,3,0,0,2,2,3,,,,,,,,,,,,,,,,,,,,,,,,1222.802665,a,1,None,0,,,,,,,,,0.400501966476,,,,,,,,,,,,,,,,,,,,,2.21,0.514526128769,0.000952005386353,0.400501966476,1,a,1225.80459809,,,,,,,,,,,,,,,,,,,,,,2015_Jun_03_1157,59.9747477997,LearningTask,1,1001,
-200,a,-200,,,,,,,,,,,,,,,,,3,0,3,0,0,3,3,3,,,,,,,,,,,,,,,,,,,,,,,,1225.80619812,a,1,None,0,,,,,,,,,0.350816965103,,,,,,,,,,,,,,,,,,,,,1.16,0.514235973358,0.000872850418091,0.350816965103,1,a,1228.80762005,,,,,,,,,,,,,,,,,,,,,,2015_Jun_03_1157,59.9747477997,LearningTask,1,1001,
-200,a,-200,,,,,,,,,,,,,,,,,3,0,3,0,1,0,4,3,,,,,,,,,,,,,,,,,,,,,,,,1228.80921316,a,1,None,0,,,,,,,,,0.317310094833,,,,,,,,,,,,,,,,,,,,,1.92,0.514414072037,0.000944137573242,0.317310094833,1,a,1231.81121612,,,,,,,,,,,,,,,,,,,,,,2015_Jun_03_1157,59.9747477997,LearningTask,1,1001,
-200,q,200,,,,,,,,,,,,,,,,,3,0,3,0,1,1,5,1,,,,,,,,,,,,,,,,,,,,,,,,1231.81277299,q,1,None,0,,,,,,,,,0.317207813263,,,,,,,,,,,,,,,,,,,,,3.81,0.514405012131,0.00148510932922,0.317207813263,1,q,1234.81446314,,,,,,,,,,,,,,,,,,,,,,2015_Jun_03_1157,59.9747477997,LearningTask,1,1001,
-200,q,200,,,,,,,,,,,,,,,,,3,0,3,0,1,2,6,1,,,,,,,,,,,,,,,,,,,,,,,,1234.81610703,q,1,None,0,,,,,,,,,0.301322937012,,,,,,,,,,,,,,,,,,,,,0.44,0.51430606842,0.00100493431091,0.301322937012,1,q,1237.81768918,,,,,,,,,,,,,,,,,,,,,,2015_Jun_03_1157,59.9747477997,LearningTask,1,1001,
200,s,-200,,,,,,,,,,,,,,,,,3,0,3,0,1,3,7,2,,,,,,,,,,,,,,,,,,,,,,,,1237.81928706,s,1,None,0,,,,,,,,,0.317919969559,,,,,,,,,,,,,,,,,,,,,0.41,0.514441013336,0.000915050506592,0.317919969559,1,s,1240.82113004,,,,,,,,,,,,,,,,,,,,,,2015_Jun_03_1157,59.9747477997,LearningTask,1,1001,
200,s,-200,,,,,,,,,,,,,,,,,3,0,3,0,2,0,8,2,,,,,,,,,,,,,,,,,,,,,,,,1240.82268906,s,1,None,0,,,,,,,,,0.334371089935,,,,,,,,,,,,,,,,,,,,,1.22,0.514211893082,0.000931978225708,0.334371089935,1,s,1243.82456112,,,,,,,,,,,,,,,,,,,,,,2015_Jun_03_1157,59.9747477997,LearningTask,1,1001,
200,w,200,,,,,,,,,,,,,,,,,3,0,3,0,2,1,9,0,,,,,,,,,,,,,,,,,,,,,,,,1246.82842612,w,1,None,0,,,,,,,,,0.233945131302,,,,,,,,,,,,,,,,,,,,,0.78,0.514327049255,0.000968217849731,0.317461013794,0,s,1246.82802796,0.89,0.515544891357,0.000977039337158,0.233945131302,1,w,1249.83179903,,,,,,,,,,,,,,,2015_Jun_03_1157,59.9747477997,LearningTask,1,1001,
-200,q,200,,,,,,,,,,,,,,,,,3,0,3,0,2,2,10,1,,,,,,,,,,,,,,,,,,,,,,,,1249.83343005,q,1,None,0,,,,,,,,,0.351078033447,,,,,,,,,,,,,,,,,,,,,0.7,0.513521194458,0.000903129577637,0.351078033447,1,q,1252.83460116,,,,,,,,,,,,,,,,,,,,,,2015_Jun_03_1157,59.9747477997,LearningTask,1,1001,
200,w,200,,,,,,,,,,,,,,,,,3,0,3,0,2,3,11,0,,,,,,,,,,,,,,,,,,,,,,,,1252.83622408,w,1,None,0,,,,,,,,,0.316962957382,,,,,,,,,,,,,,,,,,,,,0.54,0.514680147171,0.000930070877075,0.316962957382,1,w,1255.83792806,,,,,,,,,,,,,,,,,,,,,,2015_Jun_03_1157,59.9747477997,LearningTask,1,1001,
200,s,-200,,,,,,,,,,,,,,,,,3,0,3,0,3,0,12,2,,,,,,,,,,,,,,,,,,,,,,,,1255.83939409,s,1,None,0,,,,,,,,,0.317765951157,,,,,,,,,,,,,,,,,,,,,0.83,0.514347076416,0.000998973846436,0.317765951157,1,s,1258.84145617,,,,,,,,,,,,,,,,,,,,,,2015_Jun_03_1157,59.9747477997,LearningTask,1,1001,
-200,q,200,,,,,,,,,,,,,,,,,3,0,3,0,3,1,13,1,,,,,,,,,,,,,,,,,,,,,,,,1258.84298515,q,1,None,0,,,,,,,,,0.300259828568,,,,,,,,,,,,,,,,,,,,,4.15,0.514616966248,0.0010290145874,0.300259828568,1,q,1261.84440804,,,,,,,,,,,,,,,,,,,,,,2015_Jun_03_1157,59.9747477997,LearningTask,1,1001,
-200,q,200,,,,,,,,,,,,,,,,,3,0,3,0,3,2,14,1,,,,,,,,,,,,,,,,,,,,,,,,1261.84604406,q,1,None,0,,,,,,,,,0.367489099503,,,,,,,,,,,,,,,,,,,,,2.19,0.514615058899,0.000878095626831,0.367489099503,1,q,1264.84800816,,,,,,,,,,,,,,,,,,,,,,2015_Jun_03_1157,59.9747477997,LearningTask,1,1001,
200,w,200,,,,,,,,,,,,,,,,,3,0,3,0,3,3,15,0,,,,,,,,,,,,,,,,,,,,,,,,1264.84963107,w,1,None,0,,,,,,,,,0.300622940063,,,,,,,,,,,,,,,,,,,,,3.94,0.514489889145,0.000925064086914,0.300622940063,1,w,1267.85151505,,,,,,,,,,,,,,,,,,,,,,2015_Jun_03_1157,59.9747477997,LearningTask,1,1001,
200,w,200,,,,,,,,,,,,,,,,,3,0,3,0,4,0,16,0,,,,,,,,,,,,,,,,,,,,,,,,1267.85303402,w,1,None,0,,,,,,,,,0.317671060562,,,,,,,,,,,,,,,,,,,,,0.4,0.514141082764,0.000931024551392,0.317671060562,1,w,1270.85506511,,,,,,,,,,,,,,,,,,,,,,2015_Jun_03_1157,59.9747477997,LearningTask,1,1001,
200,w,200,,,,,,,,,,,,,,,,,3,0,3,0,4,1,17,0,,,,,,,,,,,,,,,,,,,,,,,,1270.85661006,w,1,None,0,,,,,,,,,0.334123849869,,,,,,,,,,,,,,,,,,,,,3.98,0.513899087906,0.00103807449341,0.334123849869,1,w,1273.85795403,,,,,,,,,,,,,,,,,,,,,,2015_Jun_03_1157,59.9747477997,LearningTask,1,1001,
-200,a,-200,,,,,,,,,,,,,,,,,3,0,3,0,4,2,18,3,,,,,,,,,,,,,,,,,,,,,,,,1273.85963917,a,1,None,0,,,,,,,,,0.36722612381,,,,,,,,,,,,,,,,,,,,,1.22,0.514707803726,0.000885009765625,0.36722612381,1,a,1276.86135006,,,,,,,,,,,,,,,,,,,,,,2015_Jun_03_1157,59.9747477997,LearningTask,1,1001,
-200,a,-200,,,,,,,,,,,,,,,,,3,0,3,0,4,3,19,3,,,,,,,,,,,,,,,,,,,,,,,,1276.86295009,a,1,None,0,,,,,,,,,0.351001977921,,,,,,,,,,,,,,,,,,,,,1.07,0.51424407959,0.000919103622437,0.351001977921,1,a,1279.8648932,,,,,,,,,,,,,,,,,,,,,,2015_Jun_03_1157,59.9747477997,LearningTask,1,1001,
-200,q,200,,,,,,,,,,,,,,,,,3,0,3,0,5,0,20,1,,,,,,,,,,,,,,,,,,,,,,,,1279.86646104,q,1,None,0,,,,,,,,,0.351235866547,,,,,,,,,,,,,,,,,,,,,1.11,0.51437497139,0.000928163528442,0.351235866547,1,q,1282.86830401,,,,,,,,,,,,,,,,,,,,,,2015_Jun_03_1157,59.9747477997,LearningTask,1,1001,
200,s,-200,,,,,,,,,,,,,,,,,3,0,3,0,5,1,21,2,,,,,,,,,,,,,,,,,,,,,,,,1285.87154508,s,1,None,0,,,,,,,,,0.301007986069,,,,,,,,,,,,,,,,,,,,,4.06,0.514353990555,0.000913858413696,0.267452001572,0,q,1285.87123418,4.14,0.515697002411,0.00098705291748,0.301007986069,1,s,1288.87502217,,,,,,,,,,,,,,,2015_Jun_03_1157,59.9747477997,LearningTask,1,1001,
-200,q,200,,,,,,,,,,,,,,,,,3,0,3,0,5,2,22,1,,,,,,,,,,,,,,,,,,,,,,,,1291.87841415,q,1,None,0,,,,,,,,,0.317239046097,,,,,,,,,,,,,,,,,,,,,0.69,0.514348983765,0.000953912734985,0.317494869232,0,a,1291.878124,0.54,0.515741109848,0.00101113319397,0.317239046097,1,q,1294.88163304,,,,,,,,,,,,,,,2015_Jun_03_1157,59.9747477997,LearningTask,1,1001,
-200,a,-200,,,,,,,,,,,,,,,,,3,0,3,0,5,3,23,3,,,,,,,,,,,,,,,,,,,,,,,,1294.88326406,a,1,None,0,,,,,,,,,0.517932891846,,,,,,,,,,,,,,,,,,,,,4.15,0.514180898666,0.000936031341553,0.517932891846,1,a,1297.88533711,,,,,,,,,,,,,,,,,,,,,,2015_Jun_03_1157,59.9747477997,LearningTask,1,1001,
