trials.thisRepN,trials.thisTrialN,trials.thisN,trials.thisIndex,key_resp_2.keys,key_resp_2.corr,key_resp_2.rt,jitterTime,date,frameRate,expName,session,participant,
0,0,0,0,space,0,0.996757984161,0.62,2015_Jun_03_1044,59.9549441376,DondersAuditory3,002,106,
1,0,1,0,space,0,1.31777405739,0.92,2015_Jun_03_1044,59.9549441376,DondersAuditory3,002,106,
2,0,2,0,space,0,1.05070304871,0.78,2015_Jun_03_1044,59.9549441376,DondersAuditory3,002,106,
3,0,3,0,space,0,1.18376684189,0.9,2015_Jun_03_1044,59.9549441376,DondersAuditory3,002,106,
4,0,4,0,space,0,1.13427400589,0.93,2015_Jun_03_1044,59.9549441376,DondersAuditory3,002,106,
5,0,5,0,space,0,1.23422694206,0.97,2015_Jun_03_1044,59.9549441376,DondersAuditory3,002,106,
6,0,6,0,space,0,1.21769499779,0.98,2015_Jun_03_1044,59.9549441376,DondersAuditory3,002,106,
7,0,7,0,space,0,1.25069499016,0.98,2015_Jun_03_1044,59.9549441376,DondersAuditory3,002,106,
8,0,8,0,space,0,1.217222929,0.95,2015_Jun_03_1044,59.9549441376,DondersAuditory3,002,106,
9,0,9,0,space,0,1.21777415276,0.87,2015_Jun_03_1044,59.9549441376,DondersAuditory3,002,106,
10,0,10,0,space,0,1.00034689903,0.72,2015_Jun_03_1044,59.9549441376,DondersAuditory3,002,106,
11,0,11,0,space,0,0.983758926392,0.72,2015_Jun_03_1044,59.9549441376,DondersAuditory3,002,106,
12,0,12,0,space,0,1.20067000389,0.92,2015_Jun_03_1044,59.9549441376,DondersAuditory3,002,106,
13,0,13,0,space,0,1.21689295769,0.95,2015_Jun_03_1044,59.9549441376,DondersAuditory3,002,106,
14,0,14,0,space,0,0.850393772125,0.57,2015_Jun_03_1044,59.9549441376,DondersAuditory3,002,106,
15,0,15,0,space,0,1.06750702858,0.84,2015_Jun_03_1044,59.9549441376,DondersAuditory3,002,106,
16,0,16,0,space,0,1.1175069809,0.89,2015_Jun_03_1044,59.9549441376,DondersAuditory3,002,106,
17,0,17,0,space,0,0.933696985245,0.7,2015_Jun_03_1044,59.9549441376,DondersAuditory3,002,106,
18,0,18,0,space,0,0.817290067673,0.55,2015_Jun_03_1044,59.9549441376,DondersAuditory3,002,106,
19,0,19,0,space,0,1.06701421738,0.86,2015_Jun_03_1044,59.9549441376,DondersAuditory3,002,106,
20,0,20,0,space,0,0.884321928024,0.6,2015_Jun_03_1044,59.9549441376,DondersAuditory3,002,106,
21,0,21,0,space,0,0.817420005798,0.58,2015_Jun_03_1044,59.9549441376,DondersAuditory3,002,106,
22,0,22,0,space,0,1.23360109329,0.97,2015_Jun_03_1044,59.9549441376,DondersAuditory3,002,106,
23,0,23,0,space,0,1.01438593864,0.67,2015_Jun_03_1044,59.9549441376,DondersAuditory3,002,106,
24,0,24,0,space,0,1.26795196533,0.91,2015_Jun_03_1044,59.9549441376,DondersAuditory3,002,106,
25,0,25,0,space,0,1.20088386536,0.92,2015_Jun_03_1044,59.9549441376,DondersAuditory3,002,106,
26,0,26,0,space,0,0.86739397049,0.54,2015_Jun_03_1044,59.9549441376,DondersAuditory3,002,106,
27,0,27,0,space,0,1.10097193718,0.81,2015_Jun_03_1044,59.9549441376,DondersAuditory3,002,106,
28,0,28,0,space,0,0.950500011444,0.57,2015_Jun_03_1044,59.9549441376,DondersAuditory3,002,106,
29,0,29,0,space,0,0.967641830444,0.63,2015_Jun_03_1044,59.9549441376,DondersAuditory3,002,106,
30,0,30,0,space,0,1.11749410629,0.73,2015_Jun_03_1044,59.9549441376,DondersAuditory3,002,106,
31,0,31,0,space,0,1.0672929287,0.83,2015_Jun_03_1044,59.9549441376,DondersAuditory3,002,106,
32,0,32,0,space,0,1.43423318863,0.77,2015_Jun_03_1044,59.9549441376,DondersAuditory3,002,106,
33,0,33,0,space,0,0.883410930634,0.63,2015_Jun_03_1044,59.9549441376,DondersAuditory3,002,106,
34,0,34,0,space,0,1.11734700203,0.8,2015_Jun_03_1044,59.9549441376,DondersAuditory3,002,106,
35,0,35,0,space,0,1.10061907768,0.64,2015_Jun_03_1044,59.9549441376,DondersAuditory3,002,106,
36,0,36,0,space,0,0.650503873825,0.57,2015_Jun_03_1044,59.9549441376,DondersAuditory3,002,106,
37,0,37,0,space,0,1.11763596535,0.88,2015_Jun_03_1044,59.9549441376,DondersAuditory3,002,106,
38,0,38,0,space,0,1.13407921791,0.87,2015_Jun_03_1044,59.9549441376,DondersAuditory3,002,106,
39,0,39,0,space,0,0.91739487648,0.63,2015_Jun_03_1044,59.9549441376,DondersAuditory3,002,106,
40,0,40,0,space,0,0.833582162857,0.55,2015_Jun_03_1044,59.9549441376,DondersAuditory3,002,106,
41,0,41,0,space,0,0.950251102448,0.66,2015_Jun_03_1044,59.9549441376,DondersAuditory3,002,106,
42,0,42,0,space,0,0.867416143417,0.56,2015_Jun_03_1044,59.9549441376,DondersAuditory3,002,106,
43,0,43,0,space,0,1.25131106377,0.99,2015_Jun_03_1044,59.9549441376,DondersAuditory3,002,106,
44,0,44,0,space,0,1.2009139061,0.92,2015_Jun_03_1044,59.9549441376,DondersAuditory3,002,106,
45,0,45,0,space,0,1.06728196144,0.79,2015_Jun_03_1044,59.9549441376,DondersAuditory3,002,106,
46,0,46,0,space,0,1.18413710594,0.9,2015_Jun_03_1044,59.9549441376,DondersAuditory3,002,106,
47,0,47,0,space,0,0.833657026291,0.52,2015_Jun_03_1044,59.9549441376,DondersAuditory3,002,106,
48,0,48,0,space,0,0.883616924286,0.78,2015_Jun_03_1044,59.9549441376,DondersAuditory3,002,106,
49,0,49,0,space,0,0.867117166519,0.68,2015_Jun_03_1044,59.9549441376,DondersAuditory3,002,106,
50,0,50,0,space,0,0.783402919769,0.53,2015_Jun_03_1044,59.9549441376,DondersAuditory3,002,106,
51,0,51,0,space,0,0.833839178085,0.67,2015_Jun_03_1044,59.9549441376,DondersAuditory3,002,106,
52,0,52,0,space,0,0.850734949112,0.64,2015_Jun_03_1044,59.9549441376,DondersAuditory3,002,106,
53,0,53,0,space,0,0.733511924744,0.9,2015_Jun_03_1044,59.9549441376,DondersAuditory3,002,106,
54,0,54,0,space,0,0.867281913757,0.54,2015_Jun_03_1044,59.9549441376,DondersAuditory3,002,106,
55,0,55,0,space,0,0.933706998825,0.65,2015_Jun_03_1044,59.9549441376,DondersAuditory3,002,106,
56,0,56,0,space,0,0.766998052597,0.53,2015_Jun_03_1044,59.9549441376,DondersAuditory3,002,106,
57,0,57,0,space,0,0.800261974335,0.57,2015_Jun_03_1044,59.9549441376,DondersAuditory3,002,106,
58,0,58,0,space,0,0.917092084885,0.66,2015_Jun_03_1044,59.9549441376,DondersAuditory3,002,106,
59,0,59,0,space,0,1.15080785751,0.95,2015_Jun_03_1044,59.9549441376,DondersAuditory3,002,106,
60,0,60,0,space,0,1.03369116783,0.79,2015_Jun_03_1044,59.9549441376,DondersAuditory3,002,106,
61,0,61,0,space,0,0.93342590332,0.74,2015_Jun_03_1044,59.9549441376,DondersAuditory3,002,106,
62,0,62,0,space,0,1.13425898552,0.93,2015_Jun_03_1044,59.9549441376,DondersAuditory3,002,106,
63,0,63,0,space,0,0.984040021896,0.7,2015_Jun_03_1044,59.9549441376,DondersAuditory3,002,106,
64,0,64,0,space,0,0.767271995544,0.55,2015_Jun_03_1044,59.9549441376,DondersAuditory3,002,106,
65,0,65,0,space,0,0.766618967056,0.56,2015_Jun_03_1044,59.9549441376,DondersAuditory3,002,106,
66,0,66,0,space,0,0.850121974945,0.64,2015_Jun_03_1044,59.9549441376,DondersAuditory3,002,106,
67,0,67,0,space,0,0.750320196152,0.53,2015_Jun_03_1044,59.9549441376,DondersAuditory3,002,106,
68,0,68,0,space,0,0.967164039612,0.76,2015_Jun_03_1044,59.9549441376,DondersAuditory3,002,106,
69,0,69,0,space,0,0.899831056595,0.64,2015_Jun_03_1044,59.9549441376,DondersAuditory3,002,106,
70,0,70,0,space,0,0.7335729599,0.5,2015_Jun_03_1044,59.9549441376,DondersAuditory3,002,106,
71,0,71,0,space,0,0.934054136276,0.66,2015_Jun_03_1044,59.9549441376,DondersAuditory3,002,106,
72,0,72,0,space,0,0.782857894897,0.6,2015_Jun_03_1044,59.9549441376,DondersAuditory3,002,106,
73,0,73,0,space,0,1.1169989109,0.89,2015_Jun_03_1044,59.9549441376,DondersAuditory3,002,106,
74,0,74,0,space,0,0.733755111694,0.52,2015_Jun_03_1044,59.9549441376,DondersAuditory3,002,106,
75,0,75,0,space,0,0.816258907318,0.76,2015_Jun_03_1044,59.9549441376,DondersAuditory3,002,106,
76,0,76,0,space,0,0.750090122223,0.54,2015_Jun_03_1044,59.9549441376,DondersAuditory3,002,106,
77,0,77,0,space,0,1.01732301712,0.84,2015_Jun_03_1044,59.9549441376,DondersAuditory3,002,106,
78,0,78,0,space,0,1.26789212227,0.99,2015_Jun_03_1044,59.9549441376,DondersAuditory3,002,106,
79,0,79,0,space,0,1.00041508675,0.78,2015_Jun_03_1044,59.9549441376,DondersAuditory3,002,106,
80,0,80,0,space,0,0.883867025375,0.62,2015_Jun_03_1044,59.9549441376,DondersAuditory3,002,106,
81,0,81,0,space,0,0.616564035416,0.66,2015_Jun_03_1044,59.9549441376,DondersAuditory3,002,106,
82,0,82,0,space,0,1.10132479668,0.9,2015_Jun_03_1044,59.9549441376,DondersAuditory3,002,106,
83,0,83,0,space,0,1.01713299751,0.95,2015_Jun_03_1044,59.9549441376,DondersAuditory3,002,106,
84,0,84,0,space,0,1.1173210144,0.87,2015_Jun_03_1044,59.9549441376,DondersAuditory3,002,106,
85,0,85,0,space,0,0.750665903091,0.54,2015_Jun_03_1044,59.9549441376,DondersAuditory3,002,106,
86,0,86,0,space,0,0.783512115479,0.87,2015_Jun_03_1044,59.9549441376,DondersAuditory3,002,106,
87,0,87,0,space,0,1.23440003395,0.97,2015_Jun_03_1044,59.9549441376,DondersAuditory3,002,106,
88,0,88,0,space,0,1.01731014252,0.77,2015_Jun_03_1044,59.9549441376,DondersAuditory3,002,106,
89,0,89,0,space,0,1.15066099167,0.89,2015_Jun_03_1044,59.9549441376,DondersAuditory3,002,106,
90,0,90,0,space,0,1.06782698631,0.85,2015_Jun_03_1044,59.9549441376,DondersAuditory3,002,106,
91,0,91,0,space,0,1.2348549366,0.98,2015_Jun_03_1044,59.9549441376,DondersAuditory3,002,106,
92,0,92,0,space,0,1.23438501358,0.91,2015_Jun_03_1044,59.9549441376,DondersAuditory3,002,106,
93,0,93,0,space,0,1.18407797813,0.92,2015_Jun_03_1044,59.9549441376,DondersAuditory3,002,106,
94,0,94,0,space,0,0.867158174515,0.57,2015_Jun_03_1044,59.9549441376,DondersAuditory3,002,106,
95,0,95,0,space,0,0.867003917694,0.57,2015_Jun_03_1044,59.9549441376,DondersAuditory3,002,106,
96,0,96,0,space,0,1.11782002449,0.81,2015_Jun_03_1044,59.9549441376,DondersAuditory3,002,106,
97,0,97,0,space,0,1.06689882278,0.8,2015_Jun_03_1044,59.9549441376,DondersAuditory3,002,106,
98,0,98,0,space,0,1.05076408386,0.74,2015_Jun_03_1044,59.9549441376,DondersAuditory3,002,106,
99,0,99,0,space,0,0.799745082855,0.5,2015_Jun_03_1044,59.9549441376,DondersAuditory3,002,106,
