trials.thisRepN,trials.thisTrialN,trials.thisN,trials.thisIndex,key_resp_2.keys,key_resp_2.corr,key_resp_2.rt,jitterTime,date,frameRate,expName,session,participant,
0,0,0,0,space,0,1.11568784714,0.98,2015_Jun_03_1414,59.9265046263,DondersAuditory3,001,107,
1,0,1,0,space,0,1.21698093414,0.97,2015_Jun_03_1414,59.9265046263,DondersAuditory3,001,107,
2,0,2,0,space,0,0.83367395401,0.59,2015_Jun_03_1414,59.9265046263,DondersAuditory3,001,107,
3,0,3,0,space,0,1.23411822319,0.97,2015_Jun_03_1414,59.9265046263,DondersAuditory3,001,107,
4,0,4,0,space,0,1.0839471817,0.89,2015_Jun_03_1414,59.9265046263,DondersAuditory3,001,107,
5,0,5,0,space,0,0.850406885147,0.63,2015_Jun_03_1414,59.9265046263,DondersAuditory3,001,107,
6,0,6,0,space,0,0.950546979904,0.75,2015_Jun_03_1414,59.9265046263,DondersAuditory3,001,107,
7,0,7,0,space,0,0.833603858948,0.91,2015_Jun_03_1414,59.9265046263,DondersAuditory3,001,107,
8,0,8,0,space,0,1.26731109619,0.98,2015_Jun_03_1414,59.9265046263,DondersAuditory3,001,107,
9,0,9,0,space,0,0.834182024002,0.57,2015_Jun_03_1414,59.9265046263,DondersAuditory3,001,107,
10,0,10,0,space,0,0.766941070557,0.56,2015_Jun_03_1414,59.9265046263,DondersAuditory3,001,107,
11,0,11,0,space,0,1.23400497437,0.99,2015_Jun_03_1414,59.9265046263,DondersAuditory3,001,107,
12,0,12,0,space,0,1.15052509308,0.94,2015_Jun_03_1414,59.9265046263,DondersAuditory3,001,107,
13,0,13,0,space,0,1.0507569313,0.82,2015_Jun_03_1414,59.9265046263,DondersAuditory3,001,107,
14,0,14,0,space,0,0.750272989273,0.53,2015_Jun_03_1414,59.9265046263,DondersAuditory3,001,107,
15,0,15,0,space,0,0.983616113663,0.76,2015_Jun_03_1414,59.9265046263,DondersAuditory3,001,107,
16,0,16,0,space,0,0.900236129761,0.7,2015_Jun_03_1414,59.9265046263,DondersAuditory3,001,107,
17,0,17,0,space,0,0.783419847488,0.59,2015_Jun_03_1414,59.9265046263,DondersAuditory3,001,107,
18,0,18,0,space,0,0.817220926285,0.64,2015_Jun_03_1414,59.9265046263,DondersAuditory3,001,107,
19,0,19,0,space,0,0.834133863449,0.63,2015_Jun_03_1414,59.9265046263,DondersAuditory3,001,107,
20,0,20,0,space,0,0.717185020447,0.53,2015_Jun_03_1414,59.9265046263,DondersAuditory3,001,107,
21,0,21,0,space,0,1.16752910614,0.95,2015_Jun_03_1414,59.9265046263,DondersAuditory3,001,107,
22,0,22,0,space,0,0.88382601738,0.67,2015_Jun_03_1414,59.9265046263,DondersAuditory3,001,107,
23,0,23,0,space,0,0.950679779053,0.72,2015_Jun_03_1414,59.9265046263,DondersAuditory3,001,107,
24,0,24,0,space,0,0.917083978653,0.73,2015_Jun_03_1414,59.9265046263,DondersAuditory3,001,107,
25,0,25,0,space,0,0.83405995369,0.62,2015_Jun_03_1414,59.9265046263,DondersAuditory3,001,107,
26,0,26,0,space,0,0.866689920425,0.67,2015_Jun_03_1414,59.9265046263,DondersAuditory3,001,107,
27,0,27,0,space,0,0.850305080414,0.65,2015_Jun_03_1414,59.9265046263,DondersAuditory3,001,107,
28,0,28,0,space,0,1.08419585228,0.88,2015_Jun_03_1414,59.9265046263,DondersAuditory3,001,107,
29,0,29,0,space,0,1.11763811111,0.93,2015_Jun_03_1414,59.9265046263,DondersAuditory3,001,107,
30,0,30,0,space,0,1.18429803848,0.99,2015_Jun_03_1414,59.9265046263,DondersAuditory3,001,107,
31,0,31,0,space,0,1.13427090645,0.93,2015_Jun_03_1414,59.9265046263,DondersAuditory3,001,107,
32,0,32,0,space,0,1.06752204895,0.87,2015_Jun_03_1414,59.9265046263,DondersAuditory3,001,107,
33,0,33,0,space,0,0.950550079346,0.75,2015_Jun_03_1414,59.9265046263,DondersAuditory3,001,107,
34,0,34,0,space,0,1.05137491226,0.87,2015_Jun_03_1414,59.9265046263,DondersAuditory3,001,107,
35,0,35,0,space,0,0.767179012299,0.58,2015_Jun_03_1414,59.9265046263,DondersAuditory3,001,107,
36,0,36,0,space,0,1.0008289814,0.83,2015_Jun_03_1414,59.9265046263,DondersAuditory3,001,107,
37,0,37,0,space,0,0.850277900696,0.67,2015_Jun_03_1414,59.9265046263,DondersAuditory3,001,107,
38,0,38,0,space,0,0.733557939529,0.54,2015_Jun_03_1414,59.9265046263,DondersAuditory3,001,107,
39,0,39,0,space,0,0.633066892624,0.87,2015_Jun_03_1414,59.9265046263,DondersAuditory3,001,107,
40,0,40,0,space,0,0.850519895554,0.6,2015_Jun_03_1414,59.9265046263,DondersAuditory3,001,107,
41,0,41,0,space,0,0.98396396637,0.75,2015_Jun_03_1414,59.9265046263,DondersAuditory3,001,107,
42,0,42,0,space,0,0.833920955658,0.63,2015_Jun_03_1414,59.9265046263,DondersAuditory3,001,107,
43,0,43,0,space,0,1.05104112625,0.84,2015_Jun_03_1414,59.9265046263,DondersAuditory3,001,107,
44,0,44,0,space,0,0.850280046463,0.64,2015_Jun_03_1414,59.9265046263,DondersAuditory3,001,107,
45,0,45,0,space,0,1.1669318676,0.96,2015_Jun_03_1414,59.9265046263,DondersAuditory3,001,107,
46,0,46,0,space,0,1.10071992874,0.85,2015_Jun_03_1414,59.9265046263,DondersAuditory3,001,107,
47,0,47,0,space,0,1.05012798309,0.86,2015_Jun_03_1414,59.9265046263,DondersAuditory3,001,107,
48,0,48,0,space,0,1.06768202782,0.88,2015_Jun_03_1414,59.9265046263,DondersAuditory3,001,107,
49,0,49,0,space,0,1.00051093102,0.79,2015_Jun_03_1414,59.9265046263,DondersAuditory3,001,107,
50,0,50,0,space,0,0.850376844406,0.63,2015_Jun_03_1414,59.9265046263,DondersAuditory3,001,107,
51,0,51,0,space,0,0.901067018509,0.71,2015_Jun_03_1414,59.9265046263,DondersAuditory3,001,107,
52,0,52,0,space,0,0.733552932739,0.55,2015_Jun_03_1414,59.9265046263,DondersAuditory3,001,107,
53,0,53,0,space,0,0.850080013275,0.66,2015_Jun_03_1414,59.9265046263,DondersAuditory3,001,107,
54,0,54,0,space,0,0.867263793945,0.68,2015_Jun_03_1414,59.9265046263,DondersAuditory3,001,107,
55,0,55,0,space,0,0.866931200027,0.68,2015_Jun_03_1414,59.9265046263,DondersAuditory3,001,107,
56,0,56,0,space,0,1.00095486641,0.82,2015_Jun_03_1414,59.9265046263,DondersAuditory3,001,107,
57,0,57,0,space,0,0.734174013138,0.55,2015_Jun_03_1414,59.9265046263,DondersAuditory3,001,107,
58,0,58,0,space,0,1.01730513573,0.82,2015_Jun_03_1414,59.9265046263,DondersAuditory3,001,107,
59,0,59,0,space,0,1.10003399849,0.93,2015_Jun_03_1414,59.9265046263,DondersAuditory3,001,107,
60,0,60,0,space,0,0.983654975891,0.78,2015_Jun_03_1414,59.9265046263,DondersAuditory3,001,107,
61,0,61,0,space,0,1.06736803055,0.87,2015_Jun_03_1414,59.9265046263,DondersAuditory3,001,107,
62,0,62,0,space,0,0.783268213272,0.57,2015_Jun_03_1414,59.9265046263,DondersAuditory3,001,107,
63,0,63,0,space,0,1.05034518242,0.86,2015_Jun_03_1414,59.9265046263,DondersAuditory3,001,107,
64,0,64,0,space,0,1.01719212532,0.81,2015_Jun_03_1414,59.9265046263,DondersAuditory3,001,107,
65,0,65,0,space,0,0.734224081039,0.52,2015_Jun_03_1414,59.9265046263,DondersAuditory3,001,107,
66,0,66,0,space,0,0.866926908493,0.68,2015_Jun_03_1414,59.9265046263,DondersAuditory3,001,107,
67,0,67,0,space,0,1.11727190018,0.9,2015_Jun_03_1414,59.9265046263,DondersAuditory3,001,107,
68,0,68,0,space,0,0.950495004654,0.77,2015_Jun_03_1414,59.9265046263,DondersAuditory3,001,107,
69,0,69,0,space,0,1.1672000885,0.96,2015_Jun_03_1414,59.9265046263,DondersAuditory3,001,107,
70,0,70,0,space,0,0.917190074921,0.69,2015_Jun_03_1414,59.9265046263,DondersAuditory3,001,107,
71,0,71,0,space,0,0.833618879318,0.85,2015_Jun_03_1414,59.9265046263,DondersAuditory3,001,107,
72,0,72,0,space,0,1.16746497154,0.72,2015_Jun_03_1414,59.9265046263,DondersAuditory3,001,107,
73,0,73,0,space,0,0.800426006317,0.61,2015_Jun_03_1414,59.9265046263,DondersAuditory3,001,107,
74,0,74,0,space,0,0.933562040329,0.74,2015_Jun_03_1414,59.9265046263,DondersAuditory3,001,107,
75,0,75,0,space,0,0.75041103363,0.52,2015_Jun_03_1414,59.9265046263,DondersAuditory3,001,107,
76,0,76,0,space,0,0.867188930511,0.64,2015_Jun_03_1414,59.9265046263,DondersAuditory3,001,107,
77,0,77,0,space,0,1.18397808075,0.97,2015_Jun_03_1414,59.9265046263,DondersAuditory3,001,107,
78,0,78,0,space,0,0.850324869156,0.6,2015_Jun_03_1414,59.9265046263,DondersAuditory3,001,107,
79,0,79,0,space,0,0.88378405571,0.7,2015_Jun_03_1414,59.9265046263,DondersAuditory3,001,107,
80,0,80,0,space,0,0.916849851608,0.78,2015_Jun_03_1414,59.9265046263,DondersAuditory3,001,107,
81,0,81,0,space,0,1.03382110596,0.85,2015_Jun_03_1414,59.9265046263,DondersAuditory3,001,107,
82,0,82,0,space,0,0.950507879257,0.72,2015_Jun_03_1414,59.9265046263,DondersAuditory3,001,107,
83,0,83,0,space,0,1.05065989494,0.86,2015_Jun_03_1414,59.9265046263,DondersAuditory3,001,107,
84,0,84,0,space,0,0.800526857376,0.59,2015_Jun_03_1414,59.9265046263,DondersAuditory3,001,107,
85,0,85,0,space,0,0.816751003265,0.63,2015_Jun_03_1414,59.9265046263,DondersAuditory3,001,107,
86,0,86,0,space,0,0.884369134903,0.72,2015_Jun_03_1414,59.9265046263,DondersAuditory3,001,107,
87,0,87,0,space,0,0.950303792953,0.73,2015_Jun_03_1414,59.9265046263,DondersAuditory3,001,107,
88,0,88,0,space,0,0.784017086029,0.57,2015_Jun_03_1414,59.9265046263,DondersAuditory3,001,107,
89,0,89,0,space,0,0.767220020294,0.56,2015_Jun_03_1414,59.9265046263,DondersAuditory3,001,107,
90,0,90,0,space,0,0.800325155258,0.6,2015_Jun_03_1414,59.9265046263,DondersAuditory3,001,107,
91,0,91,0,space,0,1.10072612762,0.93,2015_Jun_03_1414,59.9265046263,DondersAuditory3,001,107,
92,0,92,0,space,0,0.967068910599,0.78,2015_Jun_03_1414,59.9265046263,DondersAuditory3,001,107,
93,0,93,0,space,0,1.18414998055,0.85,2015_Jun_03_1414,59.9265046263,DondersAuditory3,001,107,
94,0,94,0,space,0,1.16780805588,0.98,2015_Jun_03_1414,59.9265046263,DondersAuditory3,001,107,
95,0,95,0,space,0,0.833552837372,0.61,2015_Jun_03_1414,59.9265046263,DondersAuditory3,001,107,
96,0,96,0,space,0,0.933923006058,0.73,2015_Jun_03_1414,59.9265046263,DondersAuditory3,001,107,
97,0,97,0,space,0,0.966979026794,0.77,2015_Jun_03_1414,59.9265046263,DondersAuditory3,001,107,
98,0,98,0,space,0,0.933794975281,0.72,2015_Jun_03_1414,59.9265046263,DondersAuditory3,001,107,
99,0,99,0,space,0,0.934046983719,0.77,2015_Jun_03_1414,59.9265046263,DondersAuditory3,001,107,
