trials.thisRepN,trials.thisTrialN,trials.thisN,trials.thisIndex,key_resp_2.keys,key_resp_2.corr,key_resp_2.rt,jitterTime,date,frameRate,expName,session,participant,
0,0,0,0,space,0,0.85119509697,0.58,2015_Jun_02_1513,59.9434622915,DondersAuditory2,002,102,
1,0,1,0,space,0,1.1509540081,0.89,2015_Jun_02_1513,59.9434622915,DondersAuditory2,002,102,
2,0,2,0,space,0,1.13367700577,0.84,2015_Jun_02_1513,59.9434622915,DondersAuditory2,002,102,
3,0,3,0,space,0,1.11798405647,0.84,2015_Jun_02_1513,59.9434622915,DondersAuditory2,002,102,
4,0,4,0,space,0,0.967288970947,0.73,2015_Jun_02_1513,59.9434622915,DondersAuditory2,002,102,
5,0,5,0,space,0,0.766867876053,0.51,2015_Jun_02_1513,59.9434622915,DondersAuditory2,002,102,
6,0,6,0,space,0,0.783581972122,0.5,2015_Jun_02_1513,59.9434622915,DondersAuditory2,002,102,
7,0,7,0,space,0,1.20057415962,0.97,2015_Jun_02_1513,59.9434622915,DondersAuditory2,002,102,
8,0,8,0,space,0,1.05120301247,0.72,2015_Jun_02_1513,59.9434622915,DondersAuditory2,002,102,
9,0,9,0,space,0,0.85066485405,0.57,2015_Jun_02_1513,59.9434622915,DondersAuditory2,002,102,
10,0,10,0,space,0,1.15045309067,0.85,2015_Jun_02_1513,59.9434622915,DondersAuditory2,002,102,
11,0,11,0,space,0,1.05087590218,0.71,2015_Jun_02_1513,59.9434622915,DondersAuditory2,002,102,
12,0,12,0,space,0,1.20120000839,0.93,2015_Jun_02_1513,59.9434622915,DondersAuditory2,002,102,
13,0,13,0,space,0,1.25049090385,0.91,2015_Jun_02_1513,59.9434622915,DondersAuditory2,002,102,
14,0,14,0,space,0,0.933773994446,0.69,2015_Jun_02_1513,59.9434622915,DondersAuditory2,002,102,
15,0,15,0,space,0,1.05070614815,0.72,2015_Jun_02_1513,59.9434622915,DondersAuditory2,002,102,
16,0,16,0,space,0,1.21756291389,0.89,2015_Jun_02_1513,59.9434622915,DondersAuditory2,002,102,
17,0,17,0,space,0,0.967590093613,0.66,2015_Jun_02_1513,59.9434622915,DondersAuditory2,002,102,
18,0,18,0,space,0,1.18400001526,0.9,2015_Jun_02_1513,59.9434622915,DondersAuditory2,002,102,
19,0,19,0,space,0,1.00075793266,0.73,2015_Jun_02_1513,59.9434622915,DondersAuditory2,002,102,
20,0,20,0,space,0,0.866683959961,0.54,2015_Jun_02_1513,59.9434622915,DondersAuditory2,002,102,
21,0,21,0,space,0,0.883466005325,0.58,2015_Jun_02_1513,59.9434622915,DondersAuditory2,002,102,
22,0,22,0,space,0,1.08362293243,0.79,2015_Jun_02_1513,59.9434622915,DondersAuditory2,002,102,
23,0,23,0,space,0,0.950353145599,0.61,2015_Jun_02_1513,59.9434622915,DondersAuditory2,002,102,
24,0,24,0,space,0,0.917397022247,0.68,2015_Jun_02_1513,59.9434622915,DondersAuditory2,002,102,
25,0,25,0,space,0,0.783845901489,0.54,2015_Jun_02_1513,59.9434622915,DondersAuditory2,002,102,
26,0,26,0,space,0,1.15031599998,0.88,2015_Jun_02_1513,59.9434622915,DondersAuditory2,002,102,
27,0,27,0,space,0,0.816781044006,0.51,2015_Jun_02_1513,59.9434622915,DondersAuditory2,002,102,
28,0,28,0,space,0,0.934072971344,0.69,2015_Jun_02_1513,59.9434622915,DondersAuditory2,002,102,
29,0,29,0,space,0,1.06721591949,0.78,2015_Jun_02_1513,59.9434622915,DondersAuditory2,002,102,
30,0,30,0,space,0,1.25084805489,0.99,2015_Jun_02_1513,59.9434622915,DondersAuditory2,002,102,
31,0,31,0,space,0,0.883979082108,0.59,2015_Jun_02_1513,59.9434622915,DondersAuditory2,002,102,
32,0,32,0,space,0,1.43419599533,0.97,2015_Jun_02_1513,59.9434622915,DondersAuditory2,002,102,
33,0,33,0,space,0,1.05047607422,0.74,2015_Jun_02_1513,59.9434622915,DondersAuditory2,002,102,
34,0,34,0,space,0,1.08407998085,0.64,2015_Jun_02_1513,59.9434622915,DondersAuditory2,002,102,
35,0,35,0,space,0,0.916966915131,0.6,2015_Jun_02_1513,59.9434622915,DondersAuditory2,002,102,
36,0,36,0,space,0,1.01712584496,0.71,2015_Jun_02_1513,59.9434622915,DondersAuditory2,002,102,
37,0,37,0,space,0,0.83339381218,0.56,2015_Jun_02_1513,59.9434622915,DondersAuditory2,002,102,
38,0,38,0,space,0,0.834024906158,0.51,2015_Jun_02_1513,59.9434622915,DondersAuditory2,002,102,
39,0,39,0,space,0,1.11710786819,0.84,2015_Jun_02_1513,59.9434622915,DondersAuditory2,002,102,
40,0,40,0,space,0,1.06748199463,0.72,2015_Jun_02_1513,59.9434622915,DondersAuditory2,002,102,
41,0,41,0,space,0,1.20037102699,0.95,2015_Jun_02_1513,59.9434622915,DondersAuditory2,002,102,
42,0,42,0,space,0,0.967383861542,0.7,2015_Jun_02_1513,59.9434622915,DondersAuditory2,002,102,
43,0,43,0,space,0,1.03396606445,0.73,2015_Jun_02_1513,59.9434622915,DondersAuditory2,002,102,
44,0,44,0,space,0,1.00047802925,0.75,2015_Jun_02_1513,59.9434622915,DondersAuditory2,002,102,
45,0,45,0,space,0,1.26779603958,0.95,2015_Jun_02_1513,59.9434622915,DondersAuditory2,002,102,
46,0,46,0,space,0,0.934029817581,0.69,2015_Jun_02_1513,59.9434622915,DondersAuditory2,002,102,
47,0,47,0,space,0,0.78328704834,0.5,2015_Jun_02_1513,59.9434622915,DondersAuditory2,002,102,
48,0,48,0,space,0,0.950757980347,0.64,2015_Jun_02_1513,59.9434622915,DondersAuditory2,002,102,
49,0,49,0,space,0,0.867218971252,0.52,2015_Jun_02_1513,59.9434622915,DondersAuditory2,002,102,
50,0,50,0,space,0,1.00058603287,0.7,2015_Jun_02_1513,59.9434622915,DondersAuditory2,002,102,
51,0,51,0,space,0,1.16744303703,0.9,2015_Jun_02_1513,59.9434622915,DondersAuditory2,002,102,
52,0,52,0,space,0,1.31773495674,0.99,2015_Jun_02_1513,59.9434622915,DondersAuditory2,002,102,
53,0,53,0,space,0,1.20098400116,0.98,2015_Jun_02_1513,59.9434622915,DondersAuditory2,002,102,
54,0,54,0,space,0,1.00105714798,0.66,2015_Jun_02_1513,59.9434622915,DondersAuditory2,002,102,
55,0,55,0,space,0,1.33432817459,0.98,2015_Jun_02_1513,59.9434622915,DondersAuditory2,002,102,
56,0,56,0,space,0,0.916845083237,0.65,2015_Jun_02_1513,59.9434622915,DondersAuditory2,002,102,
57,0,57,0,space,0,0.917318105698,0.68,2015_Jun_02_1513,59.9434622915,DondersAuditory2,002,102,
58,0,58,0,space,0,0.950631856918,0.78,2015_Jun_02_1513,59.9434622915,DondersAuditory2,002,102,
59,0,59,0,space,0,1.1006090641,0.82,2015_Jun_02_1513,59.9434622915,DondersAuditory2,002,102,
60,0,60,0,space,0,0.900552988052,0.62,2015_Jun_02_1513,59.9434622915,DondersAuditory2,002,102,
61,0,61,0,space,0,1.45120882988,0.99,2015_Jun_02_1513,59.9434622915,DondersAuditory2,002,102,
62,0,62,0,space,0,1.11733388901,0.84,2015_Jun_02_1513,59.9434622915,DondersAuditory2,002,102,
63,0,63,0,space,0,1.28407406807,0.97,2015_Jun_02_1513,59.9434622915,DondersAuditory2,002,102,
64,0,64,0,space,0,0.817174911499,0.52,2015_Jun_02_1513,59.9434622915,DondersAuditory2,002,102,
65,0,65,0,space,0,1.10074901581,0.82,2015_Jun_02_1513,59.9434622915,DondersAuditory2,002,102,
66,0,66,0,space,0,0.883718967438,0.53,2015_Jun_02_1513,59.9434622915,DondersAuditory2,002,102,
67,0,67,0,space,0,0.900504112244,0.58,2015_Jun_02_1513,59.9434622915,DondersAuditory2,002,102,
68,0,68,0,space,0,0.983469963074,0.66,2015_Jun_02_1513,59.9434622915,DondersAuditory2,002,102,
69,0,69,0,space,0,1.03394293785,0.71,2015_Jun_02_1513,59.9434622915,DondersAuditory2,002,102,
70,0,70,0,space,0,0.816944122314,0.55,2015_Jun_02_1513,59.9434622915,DondersAuditory2,002,102,
71,0,71,0,space,0,0.783648967743,0.5,2015_Jun_02_1513,59.9434622915,DondersAuditory2,002,102,
72,0,72,0,space,0,1.25067305565,0.95,2015_Jun_02_1513,59.9434622915,DondersAuditory2,002,102,
73,0,73,0,space,0,0.883628845215,0.56,2015_Jun_02_1513,59.9434622915,DondersAuditory2,002,102,
74,0,74,0,space,0,0.984048128128,0.76,2015_Jun_02_1513,59.9434622915,DondersAuditory2,002,102,
75,0,75,0,space,0,1.25141811371,0.94,2015_Jun_02_1513,59.9434622915,DondersAuditory2,002,102,
76,0,76,0,space,0,0.866942882538,0.55,2015_Jun_02_1513,59.9434622915,DondersAuditory2,002,102,
77,0,77,0,space,0,0.85062289238,0.58,2015_Jun_02_1513,59.9434622915,DondersAuditory2,002,102,
78,0,78,0,space,0,0.983951091766,0.7,2015_Jun_02_1513,59.9434622915,DondersAuditory2,002,102,
79,0,79,0,space,0,1.03344297409,0.65,2015_Jun_02_1513,59.9434622915,DondersAuditory2,002,102,
80,0,80,0,space,0,1.18465399742,0.93,2015_Jun_02_1513,59.9434622915,DondersAuditory2,002,102,
81,0,81,0,space,0,1.33421611786,0.99,2015_Jun_02_1513,59.9434622915,DondersAuditory2,002,102,
82,0,82,0,space,0,1.20066785812,0.9,2015_Jun_02_1513,59.9434622915,DondersAuditory2,002,102,
83,0,83,0,space,0,1.03447318077,0.73,2015_Jun_02_1513,59.9434622915,DondersAuditory2,002,102,
84,0,84,0,space,0,1.23412585258,0.94,2015_Jun_02_1513,59.9434622915,DondersAuditory2,002,102,
85,0,85,0,space,0,1.05053210258,0.75,2015_Jun_02_1513,59.9434622915,DondersAuditory2,002,102,
86,0,86,0,space,0,1.05054402351,0.72,2015_Jun_02_1513,59.9434622915,DondersAuditory2,002,102,
87,0,87,0,space,0,1.30117607117,0.99,2015_Jun_02_1513,59.9434622915,DondersAuditory2,002,102,
88,0,88,0,space,0,0.933886051178,0.61,2015_Jun_02_1513,59.9434622915,DondersAuditory2,002,102,
89,0,89,0,space,0,0.883585929871,0.62,2015_Jun_02_1513,59.9434622915,DondersAuditory2,002,102,
90,0,90,0,space,0,0.900666952133,0.59,2015_Jun_02_1513,59.9434622915,DondersAuditory2,002,102,
91,0,91,0,space,0,1.18435502052,0.75,2015_Jun_02_1513,59.9434622915,DondersAuditory2,002,102,
92,0,92,0,space,0,1.03393697739,0.67,2015_Jun_02_1513,59.9434622915,DondersAuditory2,002,102,
93,0,93,0,space,0,1.15049386024,0.84,2015_Jun_02_1513,59.9434622915,DondersAuditory2,002,102,
94,0,94,0,space,0,1.26776909828,0.92,2015_Jun_02_1513,59.9434622915,DondersAuditory2,002,102,
95,0,95,0,space,0,1.28375196457,0.96,2015_Jun_02_1513,59.9434622915,DondersAuditory2,002,102,
96,0,96,0,space,0,1.06745100021,0.61,2015_Jun_02_1513,59.9434622915,DondersAuditory2,002,102,
97,0,97,0,space,0,0.76654791832,0.54,2015_Jun_02_1513,59.9434622915,DondersAuditory2,002,102,
98,0,98,0,space,0,1.00069212914,0.69,2015_Jun_02_1513,59.9434622915,DondersAuditory2,002,102,
99,0,99,0,space,0,0.850481033325,0.59,2015_Jun_02_1513,59.9434622915,DondersAuditory2,002,102,
