trials.thisRepN,trials.thisTrialN,trials.thisN,trials.thisIndex,key_resp_2.keys,key_resp_2.corr,key_resp_2.rt,jitterTime,date,frameRate,expName,session,participant,
0,0,0,0,space,0,1.70342993736,0.97,2015_Jun_02_1505,59.83579873,DondersVisual,001,102,
1,0,1,0,space,0,1.21785998344,0.94,2015_Jun_02_1505,59.83579873,DondersVisual,001,102,
2,0,2,0,space,0,1.16747498512,0.93,2015_Jun_02_1505,59.83579873,DondersVisual,001,102,
3,0,3,0,space,0,1.18390011787,0.96,2015_Jun_02_1505,59.83579873,DondersVisual,001,102,
4,0,4,0,space,0,1.00032401085,0.74,2015_Jun_02_1505,59.83579873,DondersVisual,001,102,
5,0,5,0,space,0,0.967061042786,0.73,2015_Jun_02_1505,59.83579873,DondersVisual,001,102,
6,0,6,0,space,0,1.03387093544,0.78,2015_Jun_02_1505,59.83579873,DondersVisual,001,102,
7,0,7,0,space,0,0.983638048172,0.74,2015_Jun_02_1505,59.83579873,DondersVisual,001,102,
8,0,8,0,space,0,0.834008216858,0.5,2015_Jun_02_1505,59.83579873,DondersVisual,001,102,
9,0,9,0,space,0,0.984627008438,0.73,2015_Jun_02_1505,59.83579873,DondersVisual,001,102,
10,0,10,0,space,0,1.08378005028,0.81,2015_Jun_02_1505,59.83579873,DondersVisual,001,102,
11,0,11,0,space,0,0.849951028824,0.58,2015_Jun_02_1505,59.83579873,DondersVisual,001,102,
12,0,12,0,space,0,0.900354146957,0.65,2015_Jun_02_1505,59.83579873,DondersVisual,001,102,
13,0,13,0,space,0,0.950531959534,0.67,2015_Jun_02_1505,59.83579873,DondersVisual,001,102,
14,0,14,0,space,0,1.06754899025,0.76,2015_Jun_02_1505,59.83579873,DondersVisual,001,102,
15,0,15,0,space,0,0.983644008636,0.7,2015_Jun_02_1505,59.83579873,DondersVisual,001,102,
16,0,16,0,space,0,0.951061010361,0.65,2015_Jun_02_1505,59.83579873,DondersVisual,001,102,
17,0,17,0,space,0,0.933783054352,0.66,2015_Jun_02_1505,59.83579873,DondersVisual,001,102,
18,0,18,0,space,0,0.783905982971,0.51,2015_Jun_02_1505,59.83579873,DondersVisual,001,102,
19,0,19,0,space,0,1.10053110123,0.82,2015_Jun_02_1505,59.83579873,DondersVisual,001,102,
20,0,20,0,space,0,1.20042991638,0.92,2015_Jun_02_1505,59.83579873,DondersVisual,001,102,
21,0,21,0,space,0,1.05042004585,0.65,2015_Jun_02_1505,59.83579873,DondersVisual,001,102,
22,0,22,0,space,0,0.916462898254,0.65,2015_Jun_02_1505,59.83579873,DondersVisual,001,102,
23,0,23,0,space,0,0.833817005157,0.75,2015_Jun_02_1505,59.83579873,DondersVisual,001,102,
24,0,24,0,space,0,1.13377285004,0.87,2015_Jun_02_1505,59.83579873,DondersVisual,001,102,
25,0,25,0,space,0,0.750615119934,0.5,2015_Jun_02_1505,59.83579873,DondersVisual,001,102,
26,0,26,0,space,0,0.850877046585,0.63,2015_Jun_02_1505,59.83579873,DondersVisual,001,102,
27,0,27,0,space,0,0.883750915527,0.64,2015_Jun_02_1505,59.83579873,DondersVisual,001,102,
28,0,28,0,space,0,0.800146102905,0.53,2015_Jun_02_1505,59.83579873,DondersVisual,001,102,
29,0,29,0,space,0,0.766884088516,0.64,2015_Jun_02_1505,59.83579873,DondersVisual,001,102,
30,0,30,0,space,0,0.750519990921,0.53,2015_Jun_02_1505,59.83579873,DondersVisual,001,102,
31,0,31,0,space,0,0.967532157898,0.73,2015_Jun_02_1505,59.83579873,DondersVisual,001,102,
32,0,32,0,space,0,1.05078911781,0.77,2015_Jun_02_1505,59.83579873,DondersVisual,001,102,
33,0,33,0,space,0,0.917315006256,0.63,2015_Jun_02_1505,59.83579873,DondersVisual,001,102,
34,0,34,0,space,0,0.999986171722,0.71,2015_Jun_02_1505,59.83579873,DondersVisual,001,102,
35,0,35,0,space,0,1.06726908684,0.78,2015_Jun_02_1505,59.83579873,DondersVisual,001,102,
36,0,36,0,space,0,0.934265851974,0.68,2015_Jun_02_1505,59.83579873,DondersVisual,001,102,
37,0,37,0,space,0,0.783663988113,0.95,2015_Jun_02_1505,59.83579873,DondersVisual,001,102,
38,0,38,0,None,0,,0.51,2015_Jun_02_1505,59.83579873,DondersVisual,001,102,
39,0,39,0,space,0,1.11811304092,0.78,2015_Jun_02_1505,59.83579873,DondersVisual,001,102,
40,0,40,0,space,0,1.16799092293,0.87,2015_Jun_02_1505,59.83579873,DondersVisual,001,102,
41,0,41,0,space,0,1.16750597954,0.89,2015_Jun_02_1505,59.83579873,DondersVisual,001,102,
42,0,42,0,space,0,1.21763706207,0.96,2015_Jun_02_1505,59.83579873,DondersVisual,001,102,
43,0,43,0,space,0,1.23497009277,0.96,2015_Jun_02_1505,59.83579873,DondersVisual,001,102,
44,0,44,0,space,0,0.933737039566,0.64,2015_Jun_02_1505,59.83579873,DondersVisual,001,102,
45,0,45,0,space,0,1.05064988136,0.76,2015_Jun_02_1505,59.83579873,DondersVisual,001,102,
46,0,46,0,space,0,0.784204006195,0.52,2015_Jun_02_1505,59.83579873,DondersVisual,001,102,
47,0,47,0,space,0,0.850495100021,0.58,2015_Jun_02_1505,59.83579873,DondersVisual,001,102,
48,0,48,0,space,0,0.767173051834,0.54,2015_Jun_02_1505,59.83579873,DondersVisual,001,102,
49,0,49,0,space,0,0.783384084702,0.51,2015_Jun_02_1505,59.83579873,DondersVisual,001,102,
50,0,50,0,space,0,0.583087921143,0.89,2015_Jun_02_1505,59.83579873,DondersVisual,001,102,
51,0,51,0,space,0,1.2011051178,0.87,2015_Jun_02_1505,59.83579873,DondersVisual,001,102,
52,0,52,0,space,0,1.117426157,0.86,2015_Jun_02_1505,59.83579873,DondersVisual,001,102,
53,0,53,0,space,0,1.05093693733,0.77,2015_Jun_02_1505,59.83579873,DondersVisual,001,102,
54,0,54,0,space,0,0.867429971695,0.59,2015_Jun_02_1505,59.83579873,DondersVisual,001,102,
55,0,55,0,space,0,0.934169054031,0.67,2015_Jun_02_1505,59.83579873,DondersVisual,001,102,
56,0,56,0,space,0,0.833761930466,0.57,2015_Jun_02_1505,59.83579873,DondersVisual,001,102,
57,0,57,0,space,0,0.800288915634,0.54,2015_Jun_02_1505,59.83579873,DondersVisual,001,102,
58,0,58,0,space,0,0.667203187943,0.98,2015_Jun_02_1505,59.83579873,DondersVisual,001,102,
59,0,59,0,space,0,1.00074386597,0.64,2015_Jun_02_1505,59.83579873,DondersVisual,001,102,
60,0,60,0,space,0,0.867321968079,0.6,2015_Jun_02_1505,59.83579873,DondersVisual,001,102,
61,0,61,0,space,0,0.967386960983,0.68,2015_Jun_02_1505,59.83579873,DondersVisual,001,102,
62,0,62,0,space,0,0.86710691452,0.58,2015_Jun_02_1505,59.83579873,DondersVisual,001,102,
63,0,63,0,space,0,1.21718001366,0.94,2015_Jun_02_1505,59.83579873,DondersVisual,001,102,
64,0,64,0,space,0,0.900388002396,0.57,2015_Jun_02_1505,59.83579873,DondersVisual,001,102,
65,0,65,0,space,0,1.13459801674,0.82,2015_Jun_02_1505,59.83579873,DondersVisual,001,102,
66,0,66,0,space,0,1.1507589817,0.87,2015_Jun_02_1505,59.83579873,DondersVisual,001,102,
67,0,67,0,space,0,0.783296108246,0.51,2015_Jun_02_1505,59.83579873,DondersVisual,001,102,
68,0,68,0,space,0,0.950829982758,0.69,2015_Jun_02_1505,59.83579873,DondersVisual,001,102,
69,0,69,0,space,0,1.13413000107,0.83,2015_Jun_02_1505,59.83579873,DondersVisual,001,102,
70,0,70,0,space,0,1.0671710968,0.78,2015_Jun_02_1505,59.83579873,DondersVisual,001,102,
71,0,71,0,space,0,0.833853006363,0.5,2015_Jun_02_1505,59.83579873,DondersVisual,001,102,
72,0,72,0,space,0,1.13387203217,0.88,2015_Jun_02_1505,59.83579873,DondersVisual,001,102,
73,0,73,0,space,0,1.25029301643,0.98,2015_Jun_02_1505,59.83579873,DondersVisual,001,102,
74,0,74,0,space,0,1.20096707344,0.96,2015_Jun_02_1505,59.83579873,DondersVisual,001,102,
75,0,75,0,space,0,1.05097293854,0.78,2015_Jun_02_1505,59.83579873,DondersVisual,001,102,
76,0,76,0,space,0,0.950603961945,0.73,2015_Jun_02_1505,59.83579873,DondersVisual,001,102,
77,0,77,0,space,0,0.917032003403,0.66,2015_Jun_02_1505,59.83579873,DondersVisual,001,102,
78,0,78,0,space,0,0.600135087967,0.91,2015_Jun_02_1505,59.83579873,DondersVisual,001,102,
79,0,79,0,space,0,1.05052900314,0.72,2015_Jun_02_1505,59.83579873,DondersVisual,001,102,
80,0,80,0,space,0,1.21814393997,0.96,2015_Jun_02_1505,59.83579873,DondersVisual,001,102,
81,0,81,0,space,0,1.21785378456,0.92,2015_Jun_02_1505,59.83579873,DondersVisual,001,102,
82,0,82,0,space,0,1.10054588318,0.72,2015_Jun_02_1505,59.83579873,DondersVisual,001,102,
83,0,83,0,space,0,1.15041399002,0.89,2015_Jun_02_1505,59.83579873,DondersVisual,001,102,
84,0,84,0,space,0,0.850026130676,0.52,2015_Jun_02_1505,59.83579873,DondersVisual,001,102,
85,0,85,0,space,0,0.984194040298,0.72,2015_Jun_02_1505,59.83579873,DondersVisual,001,102,
86,0,86,0,space,0,0.966999053955,0.7,2015_Jun_02_1505,59.83579873,DondersVisual,001,102,
87,0,87,0,space,0,1.06725907326,0.73,2015_Jun_02_1505,59.83579873,DondersVisual,001,102,
88,0,88,0,space,0,1.23389101028,0.97,2015_Jun_02_1505,59.83579873,DondersVisual,001,102,
89,0,89,0,space,0,0.900879144669,0.61,2015_Jun_02_1505,59.83579873,DondersVisual,001,102,
90,0,90,0,space,0,0.933520078659,0.65,2015_Jun_02_1505,59.83579873,DondersVisual,001,102,
91,0,91,0,space,0,0.800367832184,0.55,2015_Jun_02_1505,59.83579873,DondersVisual,001,102,
92,0,92,0,space,0,1.03446292877,0.72,2015_Jun_02_1505,59.83579873,DondersVisual,001,102,
93,0,93,0,space,0,0.834203004837,0.56,2015_Jun_02_1505,59.83579873,DondersVisual,001,102,
94,0,94,0,space,0,1.26757597923,0.99,2015_Jun_02_1505,59.83579873,DondersVisual,001,102,
95,0,95,0,space,0,0.8501329422,0.51,2015_Jun_02_1505,59.83579873,DondersVisual,001,102,
96,0,96,0,space,0,0.833381891251,0.58,2015_Jun_02_1505,59.83579873,DondersVisual,001,102,
97,0,97,0,space,0,1.03443598747,0.71,2015_Jun_02_1505,59.83579873,DondersVisual,001,102,
98,0,98,0,space,0,1.11725997925,0.88,2015_Jun_02_1505,59.83579873,DondersVisual,001,102,
99,0,99,0,space,0,1.15105700493,0.88,2015_Jun_02_1505,59.83579873,DondersVisual,001,102,
