xPos,corrAns,yPos,corrGoResp,yPosGoStim,xPosGoStim,pracTrials.thisRepN,pracTrials.thisTrialN,pracTrials.thisN,pracTrials.thisIndex,ReDoLoopPrac.thisRepN,ReDoLoopPrac.thisTrialN,ReDoLoopPrac.thisN,ReDoLoopPrac.thisIndex,ReDoLoopPrac.thisTrial,pracStopTrials.thisRepN,pracStopTrials.thisTrialN,pracStopTrials.thisN,pracStopTrials.thisIndex,Blocks.thisRepN,Blocks.thisTrialN,Blocks.thisN,Blocks.thisIndex,Blocks.thisTrial,trials.thisRepN,trials.thisTrialN,trials.thisN,trials.thisIndex,ReDoLoopMain.thisRepN,ReDoLoopMain.thisTrialN,ReDoLoopMain.thisN,ReDoLoopMain.thisIndex,ReDoLoopMain.thisTrial,ok1.keys,ok1.rt,StartTrialTimeStamp,resp.keys,resp.corr,resp.rt,key_resp_8.keys,learningStimOnset,learningFixOnset,EndTrialTimeStamp,,,,beginningSSD,trialType,goStim,goResp.keys,goResp.corr,goResp.rt,key_resp_9.keys,goTrailCountOutput,goCumRTOutput,goRTCountOutput,stopTrialCountOutput,stopSuccessCountOutput,omissionCountOutput,commissionCountOutput,fixStopOnset,goStimOnset,stopSignalOnset,key_resp_9.rt,key_resp_3.keys,key_resp_3.rt,computedRewardOutput,expName,gender (m/f),age,frameRate,session,date,participant,,,,,,,,,,,,,,,,,,,,,,,,,,,,,,,,,space,1.611001968,,,,,,,,,,,,,,,,,,,,,,,,,,,,,,,,,LearningTask,,,59.9563154,3,2015_May_29_1129,10-200,q,200,,,,0,0,0,9,0,0,0,0,None,,,,,,,,,,,,,,,,,,,,,31.74119306,q,1,0.400954008,None,0.502416134,0.005045176,34.74599409,,,,,,,,,,,,,,,,,,,,,,,,,LearningTask,,,59.9563154,3,2015_May_29_1129,10-200,q,200,,,,0,0,0,9,,,,,,,,,,,,,,,,,,,,,,,,,,,,,,,,,,,,,,,,,,,,,,,,,,,,,,,,,,LearningTask,,,59.9563154,3,2015_May_29_1129,10-200,q,200,,,,0,1,1,5,0,0,0,0,None,,,,,,,,,,,,,,,,,,,,,34.77395511,q,1,0.36750102,None,0.505532026,0.001536846,37.76533508,3.019340992,2.991379976,0.027961016,,,,,,,,,,,,,,,,,,,,,,LearningTask,,,59.9563154,3,2015_May_29_1129,10-200,q,200,,,,0,1,1,5,,,,,,,,,,,,,,,,,,,,,,,,,,,,,,,,,,,,,,,,,,,,,,,,,,,,,,,,,,LearningTask,,,59.9563154,3,2015_May_29_1129,10-200,q,200,,,,0,2,2,1,0,0,0,0,None,,,,,,,,,,,,,,,,,,,,,37.80609703,q,1,0.534166098,None,0.509503126,0.001743078,40.80124307,3.035907984,2.995146036,0.040761948,,,,,,,,,,,,,,,,,,,,,,LearningTask,,,59.9563154,3,2015_May_29_1129,10-200,q,200,,,,0,2,2,1,,,,,,,,,,,,,,,,,,,,,,,,,,,,,,,,,,,,,,,,,,,,,,,,,,,,,,,,,,LearningTask,,,59.9563154,3,2015_May_29_1129,10200,w,200,,,,0,3,3,0,0,0,0,0,None,,,,,,,,,,,,,,,,,,,,,40.85212898,w,1,0.417504072,None,0.515851021,0.001657009,43.85365105,3.05240798,3.001522064,0.050885916,,,,,,,,,,,,,,,,,,,,,,LearningTask,,,59.9563154,3,2015_May_29_1129,10200,w,200,,,,0,3,3,0,,,,,,,,,,,,,,,,,,,,,,,,,,,,,,,,,,,,,,,,,,,,,,,,,,,,,,,,,,LearningTask,,,59.9563154,3,2015_May_29_1129,10200,s,-200,,,,0,4,4,6,0,0,0,0,None,,,,,,,,,,,,,,,,,,,,,43.91153097,s,1,0.267384052,None,0.508823872,0.001708984,46.90601492,3.052363873,2.994483948,0.057879925,,,,,,,,,,,,,,,,,,,,,,LearningTask,,,59.9563154,3,2015_May_29_1129,10200,s,-200,,,,0,4,4,6,,,,,,,,,,,,,,,,,,,,,,,,,,,,,,,,,,,,,,,,,,,,,,,,,,,,,,,,,,LearningTask,,,59.9563154,3,2015_May_29_1129,10200,w,200,,,,0,5,5,4,0,0,0,0,None,,,,,,,,,,,,,,,,,,,,,46.97393894,w,1,0.334103107,None,0.515494108,0.001069069,49.97516394,3.069149017,3.001224995,0.067924023,,,,,,,,,,,,,,,,,,,,,,LearningTask,,,59.9563154,3,2015_May_29_1129,10200,w,200,,,,0,5,5,4,,,,,,,,,,,,,,,,,,,,,,,,,,,,,,,,,,,,,,,,,,,,,,,,,,,,,,,,,,LearningTask,,,59.9563154,3,2015_May_29_1129,10200,w,200,,,,0,6,6,8,0,0,0,0,None,,,,,,,,,,,,,,,,,,,,,50.05087399,w,1,0.300828934,None,0.507554054,0.001055002,53.04385996,3.068696022,2.992985964,0.075710058,,,,,,,,,,,,,,,,,,,,,,LearningTask,,,59.9563154,3,2015_May_29_1129,10200,w,200,,,,0,6,6,8,,,,,,,,,,,,,,,,,,,,,,,,,,,,,,,,,,,,,,,,,,,,,,,,,,,,,,,,,,LearningTask,,,59.9563154,3,2015_May_29_1129,10-200,a,-200,,,,0,7,7,7,0,0,0,0,None,,,,,,,,,,,,,,,,,,,,,53.12697196,a,1,0.334228992,None,0.500264883,0.001675844,56.13304996,3.089190006,3.006078005,0.083112001,,,,,,,,,,,,,,,,,,,,,,LearningTask,,,59.9563154,3,2015_May_29_1129,10-200,a,-200,,,,0,7,7,7,,,,,,,,,,,,,,,,,,,,,,,,,,,,,,,,,,,,,,,,,,,,,,,,,,,,,,,,,,LearningTask,,,59.9563154,3,2015_May_29_1129,10200,s,-200,,,,0,8,8,2,0,0,0,0,None,,,,,,,,,,,,,,,,,,,,,56.22593093,s,1,0.334125042,None,0.503987074,0.001044035,59.215698,3.082648039,2.989767075,0.092880964,,,,,,,,,,,,,,,,,,,,,,LearningTask,,,59.9563154,3,2015_May_29_1129,10200,s,-200,,,,0,8,8,2,,,,,,,,,,,,,,,,,,,,,,,,,,,,,,,,,,,,,,,,,,,,,,,,,,,,,,,,,,LearningTask,,,59.9563154,3,2015_May_29_1129,10-200,a,-200,,,,0,9,9,3,0,0,0,0,None,,,,,,,,,,,,,,,,,,,,,59.3157649,a,1,0.434143066,None,0.500037909,0.001091003,62.31828094,3.102582932,3.002516031,0.1000669,,,,,,,,,,,,,,,,,,,,,,LearningTask,,,59.9563154,3,2015_May_29_1129,10-200,a,-200,,,,0,9,9,3,,,,,,,,,,,,,,,,,,,,,,,,,,,,,,,,,,,,,,,,,,,,,,,,,,,,,,,,,,LearningTask,,,59.9563154,3,2015_May_29_1129,10,,,z,0,-200,,,,,,,,,,0,0,0,0,,,,,,,,,,,,,,,,,63.74942398,,,,,,,66.75656104,4.438280106,3.00713706,1.431143045,0.25,stop,invertedtrianglemagenta.gif,z,1,0.550897121,None,0,0,0,1,0,0,0,0.002130985,0.50299716,0.753167152,,,,,LearningTask,,,59.9563154,3,2015_May_29_1129,10,,,m,0,200,,,,,,,,,,0,1,1,1,,,,,,,,,,,,,,,,,66.75705409,,,,,,,69.75841594,3.001854897,3.001361847,0.00049305,0.25,stop,squareblue.gif,m,1,0.450819969,None,0,0,0,2,0,0,0,0.001017094,0.514883995,0.765054941,,,,,LearningTask,,,59.9563154,3,2015_May_29_1129,10,,,z,0,-200,,,,,,,,,,1,0,2,0,,,,,,,,,,,,,,,,,69.75889111,,,,,,,72.76109099,3.002675057,3.002199888,0.000475168,-1,go,circlewhite.gif,None,0,,z,1,0,0,2,0,1,0,0.001118183,0.5152421,,0.082992077,,,,LearningTask,,,59.9563154,3,2015_May_29_1129,10,,,m,0,200,,,,,,,,,,1,1,3,1,,,,,,,,,,,,,,,,,72.76156902,,,,,,,75.76310802,3.002017021,3.001538992,0.000478029,-1,go,trianglegreen.gif,None,0,,None,2,0,0,2,0,2,0,0.00112915,0.514869213,,,,,,LearningTask,,,59.9563154,3,2015_May_29_1129,10,,,z,0,-200,,,,,,,,,,2,0,4,0,,,,,,,,,,,,,,,,,75.76365209,,,,,,,78.76532006,3.002212048,3.001667976,0.000544071,0.25,stop,squareblue.gif,None,0,,None,2,0,0,3,1,2,0,0.00117588,0.515225887,0.765393972,,,,,LearningTask,,,59.9563154,3,2015_May_29_1129,10,,,z,0,-200,,,,,,,,,,2,1,5,0,,,,,,,,,,,,,,,,,78.76584196,,,,,,,81.76780391,3.002483845,3.001961946,0.000521898,-1,go,circlewhite.gif,z,1,0.367306948,None,3,0.367306948,1,3,1,2,0,0.001064062,0.515067101,,,,,,LearningTask,,,59.9563154,3,2015_May_29_1129,10,,,m,0,200,,,,,,,,,,3,0,6,1,,,,,,,,,,,,,,,,,81.76829195,,,,,,,84.77076793,3.00296402,3.002475977,0.000488043,0.25,stop,invertedtrianglemagenta.gif,m,1,0.500877142,None,3,0.367306948,1,4,1,2,0,0.000978947,0.515245914,0.765624046,,,,,LearningTask,,,59.9563154,3,2015_May_29_1129,10,,,m,0,200,,,,,,,,,,3,1,7,1,,,,,,,,,,,,,,,,,84.77148414,,,,,,,87.77338099,3.002613068,3.001896858,0.000716209,0.25,stop,diamondgray.gif,None,0,,None,3,0.367306948,1,5,2,2,0,0.001621962,0.514532804,0.764651775,,,,,LearningTask,,,59.9563154,3,2015_May_29_1129,10,,,z,0,-200,,,,,,,,,,4,0,8,0,,,,,,,,,,,,,,,,,87.77427912,,,,,,,90.77585006,3.002469063,3.00157094,0.000898123,-1,go,trianglegreen.gif,z,1,0.517748117,None,4,0.885055065,2,5,2,2,0,0.001233816,0.514310837,,,,,,LearningTask,,,59.9563154,3,2015_May_29_1129,10,,,m,0,200,,,,,,,,,,4,1,9,1,,,,,,,,,,,,,,,,,90.77650714,,,,,,,93.77813911,3.002289057,3.001631975,0.000657082,-1,go,crossyellow.gif,m,1,0.700853109,None,5,1.585908175,3,5,2,2,0,0.001134157,0.51463604,,,,,,LearningTask,,,59.9563154,3,2015_May_29_1129,10,,,,,,,,,,,,,,,,,,,,,,,,,,,,,,,,,,,,,,,,,,,,,,,,,,,,,,,,,,,,,,,,space,8.322606087,,LearningTask,,,59.9563154,3,2015_May_29_1129,10,,,,,,,,,,,,,,,,,,,,,,,,,,,,,,,,,space,1.133211851,,,,,,,,,,,,,,,,,,,,,,,,,,,,,,,,,LearningTask,,,59.9563154,3,2015_May_29_1129,10-200,a,-200,,,,,,,,,,,,,,,,,0,0,0,0,None,0,0,0,3,0,0,0,0,None,,,103.5206971,a,1,0.334184885,None,0.513597965,0.001920938,106.5202379,,2.999540806,,,,,,,,,,,,,,,,,,,,,,4.18,LearningTask,,,59.9563154,3,2015_May_29_1129,10-200,a,-200,,,,,,,,,,,,,,,,,0,0,0,0,None,0,0,0,3,,,,,,,,,,,,,,,,,,,,,,,,,,,,,,,,,,,,,,,,LearningTask,,,59.9563154,3,2015_May_29_1129,10200,s,-200,,,,,,,,,,,,,,,,,0,0,0,0,None,0,1,1,2,0,0,0,0,None,,,106.724818,s,1,0.367411137,None,0.52916193,0.000969887,109.723192,3.202954054,2.998373986,0.204580068,,,,,,,,,,,,,,,,,,,,,1.85,LearningTask,,,59.9563154,3,2015_May_29_1129,10200,s,-200,,,,,,,,,,,,,,,,,0,0,0,0,None,0,1,1,2,,,,,,,,,,,,,,,,,,,,,,,,,,,,,,,,,,,,,,,,LearningTask,,,59.9563154,3,2015_May_29_1129,10200,w,200,,,,,,,,,,,,,,,,,0,0,0,0,None,0,2,2,0,0,0,0,0,None,,,109.9351821,w,1,0.334095001,None,0.504659891,0.00095892,112.9255431,3.202351093,2.990360975,0.211990118,,,,,,,,,,,,,,,,,,,,,0.44,LearningTask,,,59.9563154,3,2015_May_29_1129,10200,w,200,,,,,,,,,,,,,,,,,0,0,0,0,None,0,2,2,0,,,,,,,,,,,,,,,,,,,,,,,,,,,,,,,,,,,,,,,,LearningTask,,,59.9563154,3,2015_May_29_1129,10200,w,200,,,,,,,,,,,,,,,,,0,0,0,0,None,0,3,3,0,0,0,0,0,None,,,113.1563621,w,1,0.40100503,None,0.503044128,0.000888109,116.1785409,3.252997875,3.022178888,0.230818987,,,,,,,,,,,,,,,,,,,,,0.29,LearningTask,,,59.9563154,3,2015_May_29_1129,10200,w,200,,,,,,,,,,,,,,,,,0,0,0,0,None,0,3,3,0,,,,,,,,,,,,,,,,,,,,,,,,,,,,,,,,,,,,,,,,LearningTask,,,59.9563154,3,2015_May_29_1129,10-200,a,-200,,,,,,,,,,,,,,,,,0,0,0,0,None,1,0,4,3,0,0,0,0,None,,,116.455292,a,1,0.367660046,None,0.506603956,0.001092911,119.447716,3.269175053,2.992424012,0.276751041,,,,,,,,,,,,,,,,,,,,,0.44,LearningTask,,,59.9563154,3,2015_May_29_1129,10-200,a,-200,,,,,,,,,,,,,,,,,0,0,0,0,None,1,0,4,3,,,,,,,,,,,,,,,,,,,,,,,,,,,,,,,,,,,,,,,,LearningTask,,,59.9563154,3,2015_May_29_1129,10-200,q,200,,,,,,,,,,,,,,,,,0,0,0,0,None,1,1,5,1,0,0,0,0,None,,,119.6815491,q,1,0.384135008,None,0.51645112,0.000920057,122.68344,3.235723972,3.001890898,0.233833074,,,,,,,,,,,,,,,,,,,,,1.95,LearningTask,,,59.9563154,3,2015_May_29_1129,10-200,q,200,,,,,,,,,,,,,,,,,0,0,0,0,None,1,1,5,1,,,,,,,,,,,,,,,,,,,,,,,,,,,,,,,,,,,,,,,,LearningTask,,,59.9563154,3,2015_May_29_1129,10-200,q,200,,,,,,,,,,,,,,,,,0,0,0,0,None,1,2,6,1,0,0,0,0,None,,,122.9411659,q,1,0.41811204,None,0.509175062,0.001006126,125.9362121,3.252772093,2.995046139,0.257725954,,,,,,,,,,,,,,,,,,,,,1.86,LearningTask,,,59.9563154,3,2015_May_29_1129,10-200,q,200,,,,,,,,,,,,,,,,,0,0,0,0,None,1,2,6,1,,,,,,,,,,,,,,,,,,,,,,,,,,,,,,,,,,,,,,,,LearningTask,,,59.9563154,3,2015_May_29_1129,10-200,a,-200,,,,,,,,,,,,,,,,,0,0,0,0,None,1,3,7,3,0,0,0,0,None,,,126.1845381,a,1,0.417559147,None,0.501627207,0.001054049,129.1884069,3.252194881,3.003868818,0.248326063,,,,,,,,,,,,,,,,,,,,,1.25,LearningTask,,,59.9563154,3,2015_May_29_1129,10-200,a,-200,,,,,,,,,,,,,,,,,0,0,0,0,None,1,3,7,3,,,,,,,,,,,,,,,,,,,,,,,,,,,,,,,,,,,,,,,,LearningTask,,,59.9563154,3,2015_May_29_1129,10200,s,-200,,,,,,,,,,,,,,,,,0,0,0,0,None,2,0,8,2,0,0,0,0,None,,,129.4653089,s,1,0.317306995,None,0.506576061,0.000950098,132.457725,3.269318104,2.992416143,0.276901961,,,,,,,,,,,,,,,,,,,,,0.8,LearningTask,,,59.9563154,3,2015_May_29_1129,10200,s,-200,,,,,,,,,,,,,,,,,0,0,0,0,None,2,0,8,2,,,,,,,,,,,,,,,,,,,,,,,,,,,,,,,,,,,,,,,,LearningTask,,,59.9563154,3,2015_May_29_1129,10200,s,-200,,,,,,,,,,,,,,,,,0,0,0,0,None,2,1,9,2,0,0,0,0,None,,,132.780123,s,1,0.417776108,None,0.511412144,0.000941038,135.777122,3.319396973,2.996999026,0.322397947,,,,,,,,,,,,,,,,,,,,,0.91,LearningTask,,,59.9563154,3,2015_May_29_1129,10200,s,-200,,,,,,,,,,,,,,,,,0,0,0,0,None,2,1,9,2,,,,,,,,,,,,,,,,,,,,,,,,,,,,,,,,,,,,,,,,LearningTask,,,59.9563154,3,2015_May_29_1129,10200,s,-200,,,,,,,,,,,,,,,,,0,0,0,0,None,2,2,10,2,0,0,0,0,None,,,136.052182,s,1,0.334389925,None,0.508602858,0.00107193,139.0470309,3.269908905,2.994848967,0.275059938,,,,,,,,,,,,,,,,,,,,,1.99,LearningTask,,,59.9563154,3,2015_May_29_1129,10200,s,-200,,,,,,,,,,,,,,,,,0,0,0,0,None,2,2,10,2,,,,,,,,,,,,,,,,,,,,,,,,,,,,,,,,,,,,,,,,LearningTask,,,59.9563154,3,2015_May_29_1129,10200,s,-200,,,,,,,,,,,,,,,,,0,0,0,0,None,2,3,11,2,0,0,0,0,None,,,139.3333941,s,1,0.350949049,None,0.513505936,0.000998974,142.332665,3.285634041,2.999270916,0.286363125,,,,,,,,,,,,,,,,,,,,,0.44,LearningTask,,,59.9563154,3,2015_May_29_1129,10200,s,-200,,,,,,,,,,,,,,,,,0,0,0,0,None,2,3,11,2,,,,,,,,,,,,,,,,,,,,,,,,,,,,,,,,,,,,,,,,LearningTask,,,59.9563154,3,2015_May_29_1129,10-200,a,-200,,,,,,,,,,,,,,,,,0,0,0,0,None,3,0,12,3,0,0,0,0,None,,,142.648792,a,1,0.400861025,None,0.50085783,0.001065969,145.6518979,3.31923294,3.003105879,0.316127061,,,,,,,,,,,,,,,,,,,,,3.89,LearningTask,,,59.9563154,3,2015_May_29_1129,10-200,a,-200,,,,,,,,,,,,,,,,,0,0,0,0,None,3,0,12,3,,,,,,,,,,,,,,,,,,,,,,,,,,,,,,,,,,,,,,,,LearningTask,,,59.9563154,3,2015_May_29_1129,10200,s,-200,,,,,,,,,,,,,,,,,0,0,0,0,None,3,1,13,2,0,0,0,0,None,,,146.004236,s,1,0.250689983,None,0.51478219,0.001024008,149.0045881,3.35269022,3.000352144,0.352338076,,,,,,,,,,,,,,,,,,,,,1.77,LearningTask,,,59.9563154,3,2015_May_29_1129,10200,s,-200,,,,,,,,,,,,,,,,,0,0,0,0,None,3,1,13,2,,,,,,,,,,,,,,,,,,,,,,,,,,,,,,,,,,,,,,,,LearningTask,,,59.9563154,3,2015_May_29_1129,10200,s,-200,,,,,,,,,,,,,,,,,0,0,0,0,None,3,2,14,2,0,0,0,0,None,,,149.309768,s,1,0.401098013,None,0.511884928,0.000946999,152.3071501,3.302561999,2.997382164,0.305179835,,,,,,,,,,,,,,,,,,,,,4.25,LearningTask,,,59.9563154,3,2015_May_29_1129,10200,s,-200,,,,,,,,,,,,,,,,,0,0,0,0,None,3,2,14,2,,,,,,,,,,,,,,,,,,,,,,,,,,,,,,,,,,,,,,,,LearningTask,,,59.9563154,3,2015_May_29_1129,10-200,q,200,,,,,,,,,,,,,,,,,0,0,0,0,None,3,3,15,1,0,0,0,0,None,,,152.6463521,q,1,0.484233141,None,0.51096487,0.001076937,155.642941,3.335790872,2.996588945,0.339201927,,,,,,,,,,,,,,,,,,,,,0.36,LearningTask,,,59.9563154,3,2015_May_29_1129,10-200,q,200,,,,,,,,,,,,,,,,,0,0,0,0,None,3,3,15,1,,,,,,,,,,,,,,,,,,,,,,,,,,,,,,,,,,,,,,,,LearningTask,,,59.9563154,3,2015_May_29_1129,10200,s,-200,,,,,,,,,,,,,,,,,0,0,0,0,None,4,0,16,2,0,0,0,0,None,,,155.9653871,s,1,0.384341002,None,0.511211157,0.001042128,158.962549,3.319607973,2.997161865,0.322446108,,,,,,,,,,,,,,,,,,,,,4.12,LearningTask,,,59.9563154,3,2015_May_29_1129,10200,s,-200,,,,,,,,,,,,,,,,,0,0,0,0,None,4,0,16,2,,,,,,,,,,,,,,,,,,,,,,,,,,,,,,,,,,,,,,,,LearningTask,,,59.9563154,3,2015_May_29_1129,10200,w,200,,,,,,,,,,,,,,,,,0,0,0,0,None,4,1,17,0,0,0,0,0,None,,,159.3632081,w,1,0.434034109,None,0.51641202,0.000984192,162.3651531,3.402604103,3.001945019,0.400659084,,,,,,,,,,,,,,,,,,,,,4.07,LearningTask,,,59.9563154,3,2015_May_29_1129,10200,w,200,,,,,,,,,,,,,,,,,0,0,0,0,None,4,1,17,0,,,,,,,,,,,,,,,,,,,,,,,,,,,,,,,,,,,,,,,,LearningTask,,,59.9563154,3,2015_May_29_1129,10-200,q,200,,,,,,,,,,,,,,,,,0,0,0,0,None,4,2,18,1,0,0,0,0,None,,,162.7185409,q,1,0.434472799,None,0.513725996,0.00116086,165.7184601,3.353307009,2.999919176,0.353387833,,,,,,,,,,,,,,,,,,,,,0.62,LearningTask,,,59.9563154,3,2015_May_29_1129,10-200,q,200,,,,,,,,,,,,,,,,,0,0,0,0,None,4,2,18,1,,,,,,,,,,,,,,,,,,,,,,,,,,,,,,,,,,,,,,,,LearningTask,,,59.9563154,3,2015_May_29_1129,10200,s,-200,,,,,,,,,,,,,,,,,0,0,0,0,None,4,3,19,2,0,0,0,0,None,,,166.0759971,s,1,0.400911093,None,0.509220839,0.001013041,169.0710001,3.352540016,2.995002985,0.357537031,,,,,,,,,,,,,,,,,,,,,0.41,LearningTask,,,59.9563154,3,2015_May_29_1129,10200,s,-200,,,,,,,,,,,,,,,,,0,0,0,0,None,4,3,19,2,,,,,,,,,,,,,,,,,,,,,,,,,,,,,,,,,,,,,,,,LearningTask,,,59.9563154,3,2015_May_29_1129,10200,w,200,,,,,,,,,,,,,,,,,0,0,0,0,None,5,0,20,0,0,0,0,0,None,,,169.4562809,w,1,0.434319019,None,0.514861107,0.001065969,172.457042,3.38604188,3.000761032,0.385280848,,,,,,,,,,,,,,,,,,,,,0.94,LearningTask,,,59.9563154,3,2015_May_29_1129,10200,w,200,,,,,,,,,,,,,,,,,0,0,0,0,None,5,0,20,0,,,,,,,,,,,,,,,,,,,,,,,,,,,,,,,,,,,,,,,,LearningTask,,,59.9563154,3,2015_May_29_1129,10200,s,-200,,,,,,,,,,,,,,,,,0,0,0,0,None,5,1,21,2,0,0,0,0,None,,,172.8701141,s,1,0.300992966,None,0.503726959,0.000952005,175.8595459,3.402503967,2.989431858,0.413072109,,,,,,,,,,,,,,,,,,,,,0.72,LearningTask,,,59.9563154,3,2015_May_29_1129,10200,s,-200,,,,,,,,,,,,,,,,,0,0,0,0,None,5,1,21,2,,,,,,,,,,,,,,,,,,,,,,,,,,,,,,,,,,,,,,,,LearningTask,,,59.9563154,3,2015_May_29_1129,10-200,q,200,,,,,,,,,,,,,,,,,0,0,0,0,None,5,2,22,1,0,0,0,0,None,,,176.256932,q,1,0.400972128,None,0.502776861,0.001055956,179.2620161,3.402470112,3.005084038,0.397386074,,,,,,,,,,,,,,,,,,,,,1.91,LearningTask,,,59.9563154,3,2015_May_29_1129,10-200,q,200,,,,,,,,,,,,,,,,,0,0,0,0,None,5,2,22,1,,,,,,,,,,,,,,,,,,,,,,,,,,,,,,,,,,,,,,,,LearningTask,,,59.9563154,3,2015_May_29_1129,10-200,a,-200,,,,,,,,,,,,,,,,,0,0,0,0,None,5,3,23,3,0,0,0,0,None,,,179.6851261,a,1,0.467748165,None,0.510396957,0.00090313,182.6814141,3.419398069,2.996288061,0.423110008,,,,,,,,,,,,,,,,,,,,,0.34,LearningTask,,,59.9563154,3,2015_May_29_1129,10-200,a,-200,,,,,,,,,,,,,,,,,0,0,0,0,None,5,3,23,3,,,,,,,,,,,,,,,,,,,,,,,,,,,,,,,,,,,,,,,,LearningTask,,,59.9563154,3,2015_May_29_1129,10200,w,200,,,,,,,,,,,,,,,,,0,0,0,0,None,6,0,24,0,0,0,0,0,None,,,183.132251,w,1,0.384052992,None,0.516392946,0.000989914,186.1343479,3.452933789,3.002096892,0.450836897,,,,,,,,,,,,,,,,,,,,,2.09,LearningTask,,,59.9563154,3,2015_May_29_1129,10200,w,200,,,,,,,,,,,,,,,,,0,0,0,0,None,6,0,24,0,,,,,,,,,,,,,,,,,,,,,,,,,,,,,,,,,,,,,,,,LearningTask,,,59.9563154,3,2015_May_29_1129,10200,s,-200,,,,,,,,,,,,,,,,,0,0,0,0,None,6,1,25,2,0,0,0,0,None,,,186.5788031,s,1,0.300726175,None,0.505888939,0.001004934,189.5711651,3.436817169,2.992362023,0.444455146,,,,,,,,,,,,,,,,,,,,,0.26,LearningTask,,,59.9563154,3,2015_May_29_1129,10200,s,-200,,,,,,,,,,,,,,,,,0,0,0,0,None,6,1,25,2,,,,,,,,,,,,,,,,,,,,,,,,,,,,,,,,,,,,,,,,LearningTask,,,59.9563154,3,2015_May_29_1129,10-200,a,-200,,,,,,,,,,,,,,,,,0,0,0,0,None,6,2,26,3,0,0,0,0,None,,,189.9808559,a,1,0.350980043,None,0.50676322,0.000939131,192.973412,3.402246952,2.992556095,0.409690857,,,,,,,,,,,,,,,,,,,,,1.85,LearningTask,,,59.9563154,3,2015_May_29_1129,10-200,a,-200,,,,,,,,,,,,,,,,,0,0,0,0,None,6,2,26,3,,,,,,,,,,,,,,,,,,,,,,,,,,,,,,,,,,,,,,,,LearningTask,,,59.9563154,3,2015_May_29_1129,10-200,q,200,,,,,,,,,,,,,,,,,0,0,0,0,None,6,3,27,1,0,0,0,0,None,,,193.4459691,q,1,0.400943041,None,0.511024952,0.001128912,196.442843,3.469430923,2.996873855,0.472557068,,,,,,,,,,,,,,,,,,,,,3.8,LearningTask,,,59.9563154,3,2015_May_29_1129,10-200,q,200,,,,,,,,,,,,,,,,,0,0,0,0,None,6,3,27,1,,,,,,,,,,,,,,,,,,,,,,,,,,,,,,,,,,,,,,,,LearningTask,,,59.9563154,3,2015_May_29_1129,10-200,a,-200,,,,,,,,,,,,,,,,,0,0,0,0,None,7,0,28,3,0,0,0,0,None,,,196.893486,q,0,0.367516041,None,0.516484022,0.000905037,199.895721,3.452877999,3.002234936,0.450643063,,,,,,,,,,,,,,,,,,,,,0.37,LearningTask,,,59.9563154,3,2015_May_29_1129,10-200,a,-200,,,,,,,,,,,,,,,,,0,0,0,0,None,7,0,28,3,1,0,1,0,None,,,199.8964,a,1,0.300696135,None,0.515841961,0.001695871,202.8977761,3.002055168,3.001376152,0.000679016,,,,,,,,,,,,,,,,,,,,,0.34,LearningTask,,,59.9563154,3,2015_May_29_1129,10-200,a,-200,,,,,,,,,,,,,,,,,0,0,0,0,None,7,0,28,3,,,,,,,,,,,,,,,,,,,,,,,,,,,,,,,,,,,,,,,,LearningTask,,,59.9563154,3,2015_May_29_1129,10-200,q,200,,,,,,,,,,,,,,,,,0,0,0,0,None,7,1,29,1,0,0,0,0,None,,,203.3696711,q,1,0.35010004,None,0.51191783,0.00095892,206.3666661,3.468889952,2.996994973,0.471894979,,,,,,,,,,,,,,,,,,,,,2,LearningTask,,,59.9563154,3,2015_May_29_1129,10-200,q,200,,,,,,,,,,,,,,,,,0,0,0,0,None,7,1,29,1,,,,,,,,,,,,,,,,,,,,,,,,,,,,,,,,,,,,,,,,LearningTask,,,59.9563154,3,2015_May_29_1129,10-200,a,-200,,,,,,,,,,,,,,,,,0,0,0,0,None,7,2,30,3,0,0,0,0,None,,,206.8901451,a,1,0.350569963,None,0.510855913,0.000931025,209.8867781,3.520112037,2.996633053,0.523478984,,,,,,,,,,,,,,,,,,,,,4.02,LearningTask,,,59.9563154,3,2015_May_29_1129,10-200,a,-200,,,,,,,,,,,,,,,,,0,0,0,0,None,7,2,30,3,,,,,,,,,,,,,,,,,,,,,,,,,,,,,,,,,,,,,,,,LearningTask,,,59.9563154,3,2015_May_29_1129,10-200,q,200,,,,,,,,,,,,,,,,,0,0,0,0,None,7,3,31,1,0,0,0,0,None,,,210.364985,q,1,0.417837143,None,0.505481958,0.000909805,213.356179,3.469400883,2.99119401,0.478206873,,,,,,,,,,,,,,,,,,,,,4.1,LearningTask,,,59.9563154,3,2015_May_29_1129,10-200,q,200,,,,,,,,,,,,,,,,,0,0,0,0,None,7,3,31,1,,,,,,,,,,,,,,,,,,,,,,,,,,,,,,,,,,,,,,,,LearningTask,,,59.9563154,3,2015_May_29_1129,10200,w,200,,,,,,,,,,,,,,,,,0,0,0,0,None,8,0,32,0,0,0,0,0,None,,,213.824271,None,0,,None,0.515882015,0.001003027,216.8260601,3.469881058,3.001789093,0.468091965,,,,,,,,,,,,,,,,,,,,,1.25,LearningTask,,,59.9563154,3,2015_May_29_1129,10200,w,200,,,,,,,,,,,,,,,,,0,0,0,0,None,8,0,32,0,1,0,1,0,None,,,216.826731,None,0,,None,0.515915871,0.00125289,219.8280849,3.002024889,3.001353979,0.00067091,,,,,,,,,,,,,,,,,,,,,0.99,LearningTask,,,59.9563154,3,2015_May_29_1129,10200,w,200,,,,,,,,,,,,,,,,,0,0,0,0,None,8,0,32,0,2,0,2,0,None,,,219.828747,None,0,,None,0.516056061,0.001451969,222.830626,3.002541065,3.001878977,0.000662088,,,,,,,,,,,,,,,,,,,,,1.17,LearningTask,,,59.9563154,3,2015_May_29_1129,10200,w,200,,,,,,,,,,,,,,,,,0,0,0,0,None,8,0,32,0,3,0,3,0,None,,,222.8315461,None,0,,None,0.515648842,0.001402855,225.8330731,3.002447128,3.001527071,0.000920057,,,,,,,,,,,,,,,,,,,,,0.95,LearningTask,,,59.9563154,3,2015_May_29_1129,10200,w,200,,,,,,,,,,,,,,,,,0,0,0,0,None,8,0,32,0,4,0,4,0,None,,,225.8337321,None,0,,None,0.515955925,0.001224995,228.835289,3.002215862,3.001556873,0.000658989,,,,,,,,,,,,,,,,,,,,,0.9,LearningTask,,,59.9563154,3,2015_May_29_1129,10200,w,200,,,,,,,,,,,,,,,,,0,0,0,0,None,8,0,32,0,,,,,,,,,,,,,,,,,,,,,,,,,,,,,,,,,,,,,,,,LearningTask,,,59.9563154,3,2015_May_29_1129,10-200,a,-200,,,,,,,,,,,,,,,,,0,0,0,0,None,8,1,33,3,0,0,0,0,None,,,229.3500981,None,0,,None,0.502041101,0.000901937,232.354722,3.519433022,3.00462389,0.514809132,,,,,,,,,,,,,,,,,,,,,1.76,LearningTask,,,59.9563154,3,2015_May_29_1129,10-200,a,-200,,,,,,,,,,,,,,,,,0,0,0,0,None,8,1,33,3,1,0,1,0,None,,,232.355396,None,0,,None,0.515954018,0.001274109,235.357343,3.002620935,3.001946926,0.000674009,,,,,,,,,,,,,,,,,,,,,2.12,LearningTask,,,59.9563154,3,2015_May_29_1129,10-200,a,-200,,,,,,,,,,,,,,,,,0,0,0,0,None,8,1,33,3,2,0,2,0,None,,,235.358187,None,0,,None,0.51559186,0.001531839,238.359612,3.00226903,3.001425028,0.000844002,,,,,,,,,,,,,,,,,,,,,1.88,LearningTask,,,59.9563154,3,2015_May_29_1129,10-200,a,-200,,,,,,,,,,,,,,,,,0,0,0,0,None,8,1,33,3,3,0,3,0,None,,,238.3601849,None,0,,None,0.51609683,0.001039028,241.362421,3.002809048,3.002236128,0.00057292,,,,,,,,,,,,,,,,,,,,,1.85,LearningTask,,,59.9563154,3,2015_May_29_1129,10-200,a,-200,,,,,,,,,,,,,,,,,0,0,0,0,None,8,1,33,3,4,0,4,0,None,,,241.3631721,a,1,0.901407003,None,0.515817881,0.001523972,244.3647451,3.002324104,3.001573086,0.000751018,,,,,,,,,,,,,,,,,,,,,1.85,LearningTask,,,59.9563154,3,2015_May_29_1129,10-200,a,-200,,,,,,,,,,,,,,,,,0,0,0,0,None,8,1,33,3,,,,,,,,,,,,,,,,,,,,,,,,,,,,,,,,,,,,,,,,LearningTask,,,59.9563154,3,2015_May_29_1129,10-200,a,-200,,,,,,,,,,,,,,,,,0,0,0,0,None,8,2,34,3,0,0,0,0,None,,,244.8481469,a,1,0.434074879,None,0.500272036,0.001101971,247.8508019,3.486056805,3.00265503,0.483401775,,,,,,,,,,,,,,,,,,,,,0.85,LearningTask,,,59.9563154,3,2015_May_29_1129,10-200,a,-200,,,,,,,,,,,,,,,,,0,0,0,0,None,8,2,34,3,,,,,,,,,,,,,,,,,,,,,,,,,,,,,,,,,,,,,,,,LearningTask,,,59.9563154,3,2015_May_29_1129,10-200,a,-200,,,,,,,,,,,,,,,,,0,0,0,0,None,8,3,35,3,0,0,0,0,None,,,248.354115,a,1,0.40071106,None,0.513847113,0.001020193,251.353734,3.502932071,2.999619007,0.503313064,,,,,,,,,,,,,,,,,,,,,1.78,LearningTask,,,59.9563154,3,2015_May_29_1129,10-200,a,-200,,,,,,,,,,,,,,,,,0,0,0,0,None,8,3,35,3,,,,,,,,,,,,,,,,,,,,,,,,,,,,,,,,,,,,,,,,LearningTask,,,59.9563154,3,2015_May_29_1129,10200,w,200,,,,,,,,,,,,,,,,,0,0,0,0,None,9,0,36,0,0,0,0,0,None,,,251.921416,w,1,0.384053946,None,0.515632868,0.001228809,254.9227071,3.568973065,3.001291037,0.567682028,,,,,,,,,,,,,,,,,,,,,4.24,LearningTask,,,59.9563154,3,2015_May_29_1129,10200,w,200,,,,,,,,,,,,,,,,,0,0,0,0,None,9,0,36,0,,,,,,,,,,,,,,,,,,,,,,,,,,,,,,,,,,,,,,,,LearningTask,,,59.9563154,3,2015_May_29_1129,10200,w,200,,,,,,,,,,,,,,,,,0,0,0,0,None,9,1,37,0,0,0,0,0,None,,,255.4232969,w,1,0.650926113,None,0.516333103,0.000931025,258.4255061,3.502799034,3.002209187,0.500589847,,,,,,,,,,,,,,,,,,,,,1.01,LearningTask,,,59.9563154,3,2015_May_29_1129,10200,w,200,,,,,,,,,,,,,,,,,0,0,0,0,None,9,1,37,0,,,,,,,,,,,,,,,,,,,,,,,,,,,,,,,,,,,,,,,,LearningTask,,,59.9563154,3,2015_May_29_1129,10-200,a,-200,,,,,,,,,,,,,,,,,0,0,0,0,None,9,2,38,3,0,0,0,0,None,,,258.937779,a,1,0.417454004,None,0.505050898,0.00100112,261.928421,3.502914906,2.990642071,0.512272835,,,,,,,,,,,,,,,,,,,,,3.88,LearningTask,,,59.9563154,3,2015_May_29_1129,10-200,a,-200,,,,,,,,,,,,,,,,,0,0,0,0,None,9,2,38,3,,,,,,,,,,,,,,,,,,,,,,,,,,,,,,,,,,,,,,,,LearningTask,,,59.9563154,3,2015_May_29_1129,10200,w,200,,,,,,,,,,,,,,,,,0,0,0,0,None,9,3,39,0,0,0,0,0,None,,,262.493818,w,1,0.417531013,None,0.501755953,0.001004934,265.4982121,3.569791078,3.004394054,0.565397024,,,,,,,,,,,,,,,,,,,,,0.92,LearningTask,,,59.9563154,3,2015_May_29_1129,10200,w,200,,,,,,,,,,,,,,,,,0,0,0,0,None,9,3,39,0,,,,,,,,,,,,,,,,,,,,,,,,,,,,,,,,,,,,,,,,LearningTask,,,59.9563154,3,2015_May_29_1129,10-200,q,200,,,,,,,,,,,,,,,,,0,0,0,0,None,10,0,40,1,0,0,0,0,None,,,266.0258219,q,1,0.401105165,None,0.506164789,0.001055002,269.0177209,3.519508839,2.991899014,0.527609825,,,,,,,,,,,,,,,,,,,,,0.88,LearningTask,,,59.9563154,3,2015_May_29_1129,10-200,q,200,,,,,,,,,,,,,,,,,0,0,0,0,None,10,0,40,1,,,,,,,,,,,,,,,,,,,,,,,,,,,,,,,,,,,,,,,,LearningTask,,,59.9563154,3,2015_May_29_1129,10200,s,-200,,,,,,,,,,,,,,,,,0,0,0,0,None,10,1,41,2,0,0,0,0,None,,,269.5551131,s,1,0.334214926,None,0.513020039,0.00097084,272.5538101,3.536089182,2.998697043,0.537392139,,,,,,,,,,,,,,,,,,,,,0.72,LearningTask,,,59.9563154,3,2015_May_29_1129,10200,s,-200,,,,,,,,,,,,,,,,,0,0,0,0,None,10,1,41,2,,,,,,,,,,,,,,,,,,,,,,,,,,,,,,,,,,,,,,,,LearningTask,,,59.9563154,3,2015_May_29_1129,10-200,a,-200,,,,,,,,,,,,,,,,,0,0,0,0,None,10,2,42,3,0,0,0,0,None,,,273.1487291,a,1,0.300698042,None,0.505749941,0.000961065,276.140265,3.586454868,2.991535902,0.594918966,,,,,,,,,,,,,,,,,,,,,4.23,LearningTask,,,59.9563154,3,2015_May_29_1129,10-200,a,-200,,,,,,,,,,,,,,,,,0,0,0,0,None,10,2,42,3,,,,,,,,,,,,,,,,,,,,,,,,,,,,,,,,,,,,,,,,LearningTask,,,59.9563154,3,2015_May_29_1129,10-200,q,200,,,,,,,,,,,,,,,,,0,0,0,0,None,10,3,43,1,0,0,0,0,None,,,276.694253,q,1,0.417572975,None,0.512953043,0.000962019,279.6927769,3.55251193,2.99852395,0.55398798,,,,,,,,,,,,,,,,,,,,,0.75,LearningTask,,,59.9563154,3,2015_May_29_1129,10-200,q,200,,,,,,,,,,,,,,,,,0,0,0,0,None,10,3,43,1,,,,,,,,,,,,,,,,,,,,,,,,,,,,,,,,,,,,,,,,LearningTask,,,59.9563154,3,2015_May_29_1129,10200,s,-200,,,,,,,,,,,,,,,,,0,0,0,0,None,11,0,44,2,0,0,0,0,None,,,280.3437221,s,1,0.284158945,None,0.515918016,0.000927925,283.3455691,3.652792216,3.001847029,0.650945187,,,,,,,,,,,,,,,,,,,,,4.14,LearningTask,,,59.9563154,3,2015_May_29_1129,10200,s,-200,,,,,,,,,,,,,,,,,0,0,0,0,None,11,0,44,2,,,,,,,,,,,,,,,,,,,,,,,,,,,,,,,,,,,,,,,,LearningTask,,,59.9563154,3,2015_May_29_1129,10-200,a,-200,,,,,,,,,,,,,,,,,0,0,0,0,None,11,1,45,3,0,0,0,0,None,,,283.9542179,None,0,,None,0.508826971,0.001121998,286.948576,3.60300684,2.994358063,0.608648777,,,,,,,,,,,,,,,,,,,,,3.75,LearningTask,,,59.9563154,3,2015_May_29_1129,10-200,a,-200,,,,,,,,,,,,,,,,,0,0,0,0,None,11,1,45,3,1,0,1,0,None,,,286.9490991,None,0,,None,0.516130924,0.00106883,289.951333,3.002757072,3.002233982,0.00052309,,,,,,,,,,,,,,,,,,,,,3.89,LearningTask,,,59.9563154,3,2015_May_29_1129,10-200,a,-200,,,,,,,,,,,,,,,,,0,0,0,0,None,11,1,45,3,2,0,2,0,None,,,289.95189,None,0,,None,0.516134024,0.001025915,292.9537179,3.002384901,3.001827955,0.000556946,,,,,,,,,,,,,,,,,,,,,4.21,LearningTask,,,59.9563154,3,2015_May_29_1129,10-200,a,-200,,,,,,,,,,,,,,,,,0,0,0,0,None,11,1,45,3,3,0,3,0,None,,,292.9542489,None,0,,None,0.500155926,0.00097084,295.955991,3.002273083,3.001742125,0.000530958,,,,,,,,,,,,,,,,,,,,,3.82,LearningTask,,,59.9563154,3,2015_May_29_1129,10-200,a,-200,,,,,,,,,,,,,,,,,0,0,0,0,None,11,1,45,3,4,0,4,0,None,,,295.9565911,None,0,,None,0.516083956,0.001041889,298.9584441,3.002453088,3.001852989,0.000600099,,,,,,,,,,,,,,,,,,,,,3.88,LearningTask,,,59.9563154,3,2015_May_29_1129,10-200,a,-200,,,,,,,,,,,,,,,,,0,0,0,0,None,11,1,45,3,,,,,,,,,,,,,,,,,,,,,,,,,,,,,,,,,,,,,,,,LearningTask,,,59.9563154,3,2015_May_29_1129,10200,w,200,,,,,,,,,,,,,,,,,0,0,0,0,None,11,2,46,0,0,0,0,0,None,,,299.606004,None,0,,None,0.502907991,0.001067877,302.6111259,3.652681828,3.005121946,0.647559882,,,,,,,,,,,,,,,,,,,,,4.07,LearningTask,,,59.9563154,3,2015_May_29_1129,10200,w,200,,,,,,,,,,,,,,,,,0,0,0,0,None,11,2,46,0,1,0,1,0,None,,,302.6116409,None,0,,None,0.516245842,0.001024008,305.6133311,3.002205133,3.001690149,0.000514984,,,,,,,,,,,,,,,,,,,,,4.19,LearningTask,,,59.9563154,3,2015_May_29_1129,10200,w,200,,,,,,,,,,,,,,,,,0,0,0,0,None,11,2,46,0,2,0,2,0,None,,,305.6139979,None,0,,None,0.515838146,0.001713037,308.615937,3.002605916,3.001939059,0.000666857,,,,,,,,,,,,,,,,,,,,,3.83,LearningTask,,,59.9563154,3,2015_May_29_1129,10200,w,200,,,,,,,,,,,,,,,,,0,0,0,0,None,11,2,46,0,3,0,3,0,None,,,308.6166251,None,0,,None,0.515970945,0.001241922,311.6183491,3.00241208,3.001724004,0.000688076,,,,,,,,,,,,,,,,,,,,,3.75,LearningTask,,,59.9563154,3,2015_May_29_1129,10200,w,200,,,,,,,,,,,,,,,,,0,0,0,0,None,11,2,46,0,4,0,4,0,None,,,311.6189001,None,0,,None,0.516251802,0.001003027,314.6209481,3.002599001,3.002048015,0.000550986,,,,,,,,,,,,,,,,,,,,,3.94,LearningTask,,,59.9563154,3,2015_May_29_1129,10200,w,200,,,,,,,,,,,,,,,,,0,0,0,0,None,11,2,46,0,,,,,,,,,,,,,,,,,,,,,,,,,,,,,,,,,,,,,,,,LearningTask,,,59.9563154,3,2015_May_29_1129,10-200,a,-200,,,,,,,,,,,,,,,,,0,0,0,0,None,11,3,47,3,0,0,0,0,None,,,315.2458081,None,0,,None,0.509026051,0.001066923,318.2407689,3.619820833,2.994960784,0.624860049,,,,,,,,,,,,,,,,,,,,,4.09,LearningTask,,,59.9563154,3,2015_May_29_1129,10-200,a,-200,,,,,,,,,,,,,,,,,0,0,0,0,None,11,3,47,3,1,0,1,0,None,,,318.2412961,None,0,,None,0.515947104,0.000937939,321.242955,3.00218606,3.001658916,0.000527144,,,,,,,,,,,,,,,,,,,,,3.75,LearningTask,,,59.9563154,3,2015_May_29_1129,10-200,a,-200,,,,,,,,,,,,,,,,,0,0,0,0,None,11,3,47,3,2,0,2,0,None,,,321.2434611,None,0,,None,0.516222,0.000977039,324.245307,3.002352,3.001845837,0.000506163,,,,,,,,,,,,,,,,,,,,,4.25,LearningTask,,,59.9563154,3,2015_May_29_1129,10-200,a,-200,,,,,,,,,,,,,,,,,0,0,0,0,None,11,3,47,3,3,0,3,0,None,,,324.2459719,None,0,,None,0.515927792,0.001452923,327.2477911,3.002484083,3.001819134,0.000664949,,,,,,,,,,,,,,,,,,,,,3.98,LearningTask,,,59.9563154,3,2015_May_29_1129,10-200,a,-200,,,,,,,,,,,,,,,,,0,0,0,0,None,11,3,47,3,4,0,4,0,None,,,327.248455,None,0,,None,0.515822887,0.001209974,330.2498419,3.002050876,3.00138688,0.000663996,,,,,,,,,,,,,,,,,,,,,3.97,LearningTask,,,59.9563154,3,2015_May_29_1129,10-200,a,-200,,,,,,,,,,,,,,,,,0,0,0,0,None,11,3,47,3,,,,,,,,,,,,,,,,,,,,,,,,,,,,,,,,,,,,,,,,LearningTask,,,59.9563154,3,2015_May_29_1129,10200,w,200,,,,,,,,,,,,,,,,,0,0,0,0,None,12,0,48,0,0,0,0,0,None,,,330.8925951,None,0,,None,0.507688046,0.000938892,333.8863239,3.636482001,2.993728876,0.642753125,,,,,,,,,,,,,,,,,,,,,1.06,LearningTask,,,59.9563154,3,2015_May_29_1129,10200,w,200,,,,,,,,,,,,,,,,,0,0,0,0,None,12,0,48,0,1,0,1,0,None,,,333.886997,None,0,,None,0.515857935,0.001363993,336.888705,3.002381086,3.001708031,0.000673055,,,,,,,,,,,,,,,,,,,,,1.1,LearningTask,,,59.9563154,3,2015_May_29_1129,10200,w,200,,,,,,,,,,,,,,,,,0,0,0,0,None,12,0,48,0,2,0,2,0,None,,,336.889303,None,0,,None,0.516106844,0.000890017,339.8911541,3.002449036,3.001851082,0.000597954,,,,,,,,,,,,,,,,,,,,,1.23,LearningTask,,,59.9563154,3,2015_May_29_1129,10200,w,200,,,,,,,,,,,,,,,,,0,0,0,0,None,12,0,48,0,3,0,3,0,None,,,339.891706,None,0,,None,0.516444921,0.001014948,342.893898,3.002743959,3.00219202,0.000551939,,,,,,,,,,,,,,,,,,,,,1.01,LearningTask,,,59.9563154,3,2015_May_29_1129,10200,w,200,,,,,,,,,,,,,,,,,0,0,0,0,None,12,0,48,0,4,0,4,0,None,,,342.894526,None,0,,None,0.516017914,0.001410007,345.896101,3.002202988,3.001574993,0.000627995,,,,,,,,,,,,,,,,,,,,,0.95,LearningTask,,,59.9563154,3,2015_May_29_1129,10200,w,200,,,,,,,,,,,,,,,,,0,0,0,0,None,12,0,48,0,,,,,,,,,,,,,,,,,,,,,,,,,,,,,,,,,,,,,,,,LearningTask,,,59.9563154,3,2015_May_29_1129,10200,w,200,,,,,,,,,,,,,,,,,0,0,0,0,None,12,1,49,0,0,0,0,0,None,,,346.5152049,None,0,,None,0.514778137,0.000929117,349.5157211,3.619620085,3.000516177,0.619103908,,,,,,,,,,,,,,,,,,,,,4.09,LearningTask,,,59.9563154,3,2015_May_29_1129,10200,w,200,,,,,,,,,,,,,,,,,0,0,0,0,None,12,1,49,0,1,0,1,0,None,,,349.516408,None,0,,None,0.515862942,0.001081944,352.5180039,3.002282858,3.001595974,0.000686884,,,,,,,,,,,,,,,,,,,,,3.86,LearningTask,,,59.9563154,3,2015_May_29_1129,10200,w,200,,,,,,,,,,,,,,,,,0,0,0,0,None,12,1,49,0,2,0,2,0,None,,,352.5185421,None,0,,None,0.51611495,0.001003981,355.520215,3.002211093,3.001672983,0.00053811,,,,,,,,,,,,,,,,,,,,,3.86,LearningTask,,,59.9563154,3,2015_May_29_1129,10200,w,200,,,,,,,,,,,,,,,,,0,0,0,0,None,12,1,49,0,3,0,3,0,None,,,355.5207469,None,0,,None,0.516060114,0.000963211,358.5226049,3.002389908,3.001857996,0.000531912,,,,,,,,,,,,,,,,,,,,,4.01,LearningTask,,,59.9563154,3,2015_May_29_1129,10200,w,200,,,,,,,,,,,,,,,,,0,0,0,0,None,12,1,49,0,4,0,4,0,None,,,358.5233371,None,0,,None,0.515843153,0.001100063,361.5251131,3.002508164,3.00177598,0.000732184,,,,,,,,,,,,,,,,,,,,,4.17,LearningTask,,,59.9563154,3,2015_May_29_1129,10200,w,200,,,,,,,,,,,,,,,,,0,0,0,0,None,12,1,49,0,,,,,,,,,,,,,,,,,,,,,,,,,,,,,,,,,,,,,,,,LearningTask,,,59.9563154,3,2015_May_29_1129,10-200,a,-200,,,,,,,,,,,,,,,,,0,0,0,0,None,12,2,50,3,0,0,0,0,None,,,362.1778359,None,0,,None,0.514460087,0.000908136,365.1783791,3.653265953,3.000543118,0.652722835,,,,,,,,,,,,,,,,,,,,,0.8,LearningTask,,,59.9563154,3,2015_May_29_1129,10-200,a,-200,,,,,,,,,,,,,,,,,0,0,0,0,None,12,2,50,3,1,0,1,0,None,,,365.1790431,None,0,,None,0.516084909,0.001302958,368.180862,3.002482891,3.001818895,0.000663996,,,,,,,,,,,,,,,,,,,,,1.13,LearningTask,,,59.9563154,3,2015_May_29_1129,10-200,a,-200,,,,,,,,,,,,,,,,,0,0,0,0,None,12,2,50,3,2,0,2,0,None,,,368.1817839,None,0,,None,0.515585899,0.001473904,371.1831779,3.002315998,3.001394033,0.000921965,,,,,,,,,,,,,,,,,,,,,0.86,LearningTask,,,59.9563154,3,2015_May_29_1129,10-200,a,-200,,,,,,,,,,,,,,,,,0,0,0,0,None,12,2,50,3,3,0,3,0,None,,,371.183846,None,0,,None,0.516058922,0.001233101,374.1854999,3.002321959,3.00165391,0.000668049,,,,,,,,,,,,,,,,,,,,,1.2,LearningTask,,,59.9563154,3,2015_May_29_1129,10-200,a,-200,,,,,,,,,,,,,,,,,0,0,0,0,None,12,2,50,3,4,0,4,0,None,,,374.186013,None,0,,None,0.516201019,0.00106883,377.1879101,3.002410173,3.001897097,0.000513076,,,,,,,,,,,,,,,,,,,,,0.86,LearningTask,,,59.9563154,3,2015_May_29_1129,10-200,a,-200,,,,,,,,,,,,,,,,,0,0,0,0,None,12,2,50,3,,,,,,,,,,,,,,,,,,,,,,,,,,,,,,,,,,,,,,,,LearningTask,,,59.9563154,3,2015_May_29_1129,10-200,a,-200,,,,,,,,,,,,,,,,,0,0,0,0,None,12,3,51,3,0,0,0,0,None,,,377.7919111,None,0,,None,0.512983084,0.001000881,380.7903869,3.602476835,2.99847579,0.604001045,,,,,,,,,,,,,,,,,,,,,0.61,LearningTask,,,59.9563154,3,2015_May_29_1129,10-200,a,-200,,,,,,,,,,,,,,,,,0,0,0,0,None,12,3,51,3,1,0,1,0,None,,,380.79094,None,0,,None,0.516139984,0.001000881,383.792815,3.002428055,3.001874924,0.000553131,,,,,,,,,,,,,,,,,,,,,0.48,LearningTask,,,59.9563154,3,2015_May_29_1129,10-200,a,-200,,,,,,,,,,,,,,,,,0,0,0,0,None,12,3,51,3,2,0,2,0,None,,,383.7933011,None,0,,None,0.516282082,0.000952959,386.7955351,3.002720118,3.002233983,0.000486135,,,,,,,,,,,,,,,,,,,,,0.63,LearningTask,,,59.9563154,3,2015_May_29_1129,10-200,a,-200,,,,,,,,,,,,,,,,,0,0,0,0,None,12,3,51,3,3,0,3,0,None,,,386.796144,None,0,,None,0.515969992,0.001035929,389.7979059,3.002370834,3.001761913,0.000608921,,,,,,,,,,,,,,,,,,,,,0.51,LearningTask,,,59.9563154,3,2015_May_29_1129,10-200,a,-200,,,,,,,,,,,,,,,,,0,0,0,0,None,12,3,51,3,4,0,4,0,None,,,389.798419,None,0,,None,0.516272068,0.000983,392.8005791,3.002673149,3.002160072,0.000513077,,,,,,,,,,,,,,,,,,,,,0.37,LearningTask,,,59.9563154,3,2015_May_29_1129,10-200,a,-200,,,,,,,,,,,,,,,,,0,0,0,0,None,12,3,51,3,,,,,,,,,,,,,,,,,,,,,,,,,,,,,,,,,,,,,,,,LearningTask,,,59.9563154,3,2015_May_29_1129,10200,w,200,,,,,,,,,,,,,,,,,0,0,0,0,None,13,0,52,0,0,0,0,0,None,,,393.425832,None,0,,None,0.508504868,0.001029015,396.4200771,3.619498014,2.994245052,0.625252962,,,,,,,,,,,,,,,,,,,,,1.76,LearningTask,,,59.9563154,3,2015_May_29_1129,10200,w,200,,,,,,,,,,,,,,,,,0,0,0,0,None,13,0,52,0,1,0,1,0,None,,,396.4206979,None,0,,None,0.516167879,0.00114584,399.4224241,3.002346993,3.001726151,0.000620842,,,,,,,,,,,,,,,,,,,,,1.93,LearningTask,,,59.9563154,3,2015_May_29_1129,10200,w,200,,,,,,,,,,,,,,,,,0,0,0,0,None,13,0,52,0,2,0,2,0,None,,,399.4229341,None,0,,None,0.516190052,0.000994921,402.4249091,3.002485037,3.00197506,0.000509977,,,,,,,,,,,,,,,,,,,,,1.9,LearningTask,,,59.9563154,3,2015_May_29_1129,10200,w,200,,,,,,,,,,,,,,,,,0,0,0,0,None,13,0,52,0,3,0,3,0,None,,,402.4254351,None,0,,None,0.516108036,0.001018047,405.4269321,3.002022981,3.00149703,0.000525951,,,,,,,,,,,,,,,,,,,,,2.24,LearningTask,,,59.9563154,3,2015_May_29_1129,10200,w,200,,,,,,,,,,,,,,,,,0,0,0,0,None,13,0,52,0,4,0,4,0,None,,,405.4274731,None,0,,None,0.516102791,0.001048803,408.429312,3.002379895,3.001838923,0.000540972,,,,,,,,,,,,,,,,,,,,,1.78,LearningTask,,,59.9563154,3,2015_May_29_1129,10200,w,200,,,,,,,,,,,,,,,,,0,0,0,0,None,13,0,52,0,,,,,,,,,,,,,,,,,,,,,,,,,,,,,,,,,,,,,,,,LearningTask,,,59.9563154,3,2015_May_29_1129,10200,w,200,,,,,,,,,,,,,,,,,0,0,0,0,None,13,1,53,0,0,0,0,0,None,,,409.0974209,None,0,,None,0.516064167,0.00097394,412.099191,3.669878959,3.001770019,0.66810894,,,,,,,,,,,,,,,,,,,,,0.93,LearningTask,,,59.9563154,3,2015_May_29_1129,10200,w,200,,,,,,,,,,,,,,,,,0,0,0,0,None,13,1,53,0,1,0,1,0,None,,,412.0997341,None,0,,None,0.51613903,0.000983,415.1016631,3.002472163,3.001929045,0.000543118,,,,,,,,,,,,,,,,,,,,,1.21,LearningTask,,,59.9563154,3,2015_May_29_1129,10200,w,200,,,,,,,,,,,,,,,,,0,0,0,0,None,13,1,53,0,2,0,2,0,None,,,415.102361,None,0,,None,0.516036987,0.001358032,418.08832,2.986656904,2.985959053,0.000697851,,,,,,,,,,,,,,,,,,,,,0.99,LearningTask,,,59.9563154,3,2015_May_29_1129,10200,w,200,,,,,,,,,,,,,,,,,0,0,0,0,None,13,1,53,0,3,0,3,0,None,,,418.0888581,None,0,,None,0.516116858,0.001019001,421.0900309,3.001710892,3.001172781,0.000538111,,,,,,,,,,,,,,,,,,,,,0.93,LearningTask,,,59.9563154,3,2015_May_29_1129,10200,w,200,,,,,,,,,,,,,,,,,0,0,0,0,None,13,1,53,0,4,0,4,0,None,,,421.0906851,None,0,,None,0.515961885,0.000976801,424.0925109,3.00248003,3.00182581,0.00065422,,,,,,,,,,,,,,,,,,,,,0.82,LearningTask,,,59.9563154,3,2015_May_29_1129,10200,w,200,,,,,,,,,,,,,,,,,0,0,0,0,None,13,1,53,0,,,,,,,,,,,,,,,,,,,,,,,,,,,,,,,,,,,,,,,,LearningTask,,,59.9563154,3,2015_May_29_1129,10200,w,200,,,,,,,,,,,,,,,,,0,0,0,0,None,13,2,54,0,0,0,0,0,None,,,424.87942,None,0,,None,0.513489008,0.000941038,427.8788891,3.786378145,2.999469042,0.786909103,,,,,,,,,,,,,,,,,,,,,0.94,LearningTask,,,59.9563154,3,2015_May_29_1129,10200,w,200,,,,,,,,,,,,,,,,,0,0,0,0,None,13,2,54,0,1,0,1,0,None,,,427.8794131,None,0,,None,0.515835047,0.001417875,430.8808341,3.001945019,3.001420975,0.000524044,,,,,,,,,,,,,,,,,,,,,0.77,LearningTask,,,59.9563154,3,2015_May_29_1129,10200,w,200,,,,,,,,,,,,,,,,,0,0,0,0,None,13,2,54,0,2,0,2,0,None,,,430.881361,None,0,,None,0.516052008,0.001008034,433.88325,3.002415895,3.00188899,0.000526905,,,,,,,,,,,,,,,,,,,,,0.95,LearningTask,,,59.9563154,3,2015_May_29_1129,10200,w,200,,,,,,,,,,,,,,,,,0,0,0,0,None,13,2,54,0,3,0,3,0,None,,,433.8838861,None,0,,None,0.515893936,0.001118898,436.88588,3.002629995,3.001993894,0.000636101,,,,,,,,,,,,,,,,,,,,,1.12,LearningTask,,,59.9563154,3,2015_May_29_1129,10200,w,200,,,,,,,,,,,,,,,,,0,0,0,0,None,13,2,54,0,4,0,4,0,None,,,436.886462,None,0,,None,0.532782078,0.001101971,439.888231,3.002351046,3.001769066,0.00058198,,,,,,,,,,,,,,,,,,,,,1.22,LearningTask,,,59.9563154,3,2015_May_29_1129,10200,w,200,,,,,,,,,,,,,,,,,0,0,0,0,None,13,2,54,0,,,,,,,,,,,,,,,,,,,,,,,,,,,,,,,,,,,,,,,,LearningTask,,,59.9563154,3,2015_May_29_1129,10-200,q,200,,,,,,,,,,,,,,,,,0,0,0,0,None,13,3,55,1,0,0,0,0,None,,,440.5583251,None,0,,None,0.513981819,0.001113892,443.5583711,3.670140028,3.000046015,0.670094013,,,,,,,,,,,,,,,,,,,,,1.01,LearningTask,,,59.9563154,3,2015_May_29_1129,10-200,q,200,,,,,,,,,,,,,,,,,0,0,0,0,None,13,3,55,1,1,0,1,0,None,,,443.559047,None,0,,None,0.515679836,0.001405954,446.5604951,3.002124071,3.001448154,0.000675917,,,,,,,,,,,,,,,,,,,,,0.77,LearningTask,,,59.9563154,3,2015_May_29_1129,10-200,q,200,,,,,,,,,,,,,,,,,0,0,0,0,None,13,3,55,1,2,0,2,0,None,,,446.5611379,None,0,,None,0.516042948,0.00130105,449.562938,3.002442837,3.00180006,0.000642777,,,,,,,,,,,,,,,,,,,,,0.94,LearningTask,,,59.9563154,3,2015_May_29_1129,10-200,q,200,,,,,,,,,,,,,,,,,0,0,0,0,None,13,3,55,1,3,0,3,0,None,,,449.5636699,None,0,,None,0.515635967,0.001308918,452.5652051,3.002267122,3.001535177,0.000731945,,,,,,,,,,,,,,,,,,,,,0.77,LearningTask,,,59.9563154,3,2015_May_29_1129,10-200,q,200,,,,,,,,,,,,,,,,,0,0,0,0,None,13,3,55,1,4,0,4,0,None,,,452.565712,None,0,,None,0.516100168,0.000968218,455.5672059,3.002000809,3.001493931,0.000506878,,,,,,,,,,,,,,,,,,,,,1.22,LearningTask,,,59.9563154,3,2015_May_29_1129,10-200,q,200,,,,,,,,,,,,,,,,,0,0,0,0,None,13,3,55,1,,,,,,,,,,,,,,,,,,,,,,,,,,,,,,,,,,,,,,,,LearningTask,,,59.9563154,3,2015_May_29_1129,10200,w,200,,,,,,,,,,,,,,,,,0,0,0,0,None,14,0,56,0,0,0,0,0,None,,,456.2640321,None,0,,None,0.503602028,0.001690865,459.2536559,3.686450004,2.989623785,0.696826219,,,,,,,,,,,,,,,,,,,,,1.07,LearningTask,,,59.9563154,3,2015_May_29_1129,10200,w,200,,,,,,,,,,,,,,,,,0,0,0,0,None,14,0,56,0,1,0,1,0,None,,,459.254185,None,0,,None,0.515993118,0.001041174,462.2560041,3.002348185,3.001819134,0.000529051,,,,,,,,,,,,,,,,,,,,,0.95,LearningTask,,,59.9563154,3,2015_May_29_1129,10200,w,200,,,,,,,,,,,,,,,,,0,0,0,0,None,14,0,56,0,2,0,2,0,None,,,462.2564921,None,0,,None,0.516268969,0.001010895,465.2584851,3.002480984,3.001992941,0.000488043,,,,,,,,,,,,,,,,,,,,,0.84,LearningTask,,,59.9563154,3,2015_May_29_1129,10200,w,200,,,,,,,,,,,,,,,,,0,0,0,0,None,14,0,56,0,3,0,3,0,None,,,465.258975,None,0,,None,0.516278028,0.001098156,468.26124,3.002754926,3.002264976,0.00048995,,,,,,,,,,,,,,,,,,,,,0.85,LearningTask,,,59.9563154,3,2015_May_29_1129,10200,w,200,,,,,,,,,,,,,,,,,0,0,0,0,None,14,0,56,0,4,0,4,0,None,,,468.261914,None,0,,None,0.516052961,0.000954866,471.2633331,3.002093077,3.001419067,0.00067401,,,,,,,,,,,,,,,,,,,,,0.97,LearningTask,,,59.9563154,3,2015_May_29_1129,10200,w,200,,,,,,,,,,,,,,,,,0,0,0,0,None,14,0,56,0,,,,,,,,,,,,,,,,,,,,,,,,,,,,,,,,,,,,,,,,LearningTask,,,59.9563154,3,2015_May_29_1129,10-200,q,200,,,,,,,,,,,,,,,,,0,0,0,0,None,14,1,57,1,0,0,0,0,None,,,471.924422,None,0,,None,0.506167889,0.001730919,474.916357,3.653023958,2.991935014,0.661088944,,,,,,,,,,,,,,,,,,,,,3.77,LearningTask,,,59.9563154,3,2015_May_29_1129,10-200,q,200,,,,,,,,,,,,,,,,,0,0,0,0,None,14,1,57,1,1,0,1,0,None,,,474.916909,None,0,,None,0.516182184,0.001051188,477.9187779,3.002420903,3.001868964,0.000551939,,,,,,,,,,,,,,,,,,,,,3.77,LearningTask,,,59.9563154,3,2015_May_29_1129,10-200,q,200,,,,,,,,,,,,,,,,,0,0,0,0,None,14,1,57,1,2,0,2,0,None,,,477.9194541,None,0,,None,0.515916824,0.00127697,480.9209239,3.002146005,3.00146985,0.000676155,,,,,,,,,,,,,,,,,,,,,4.13,LearningTask,,,59.9563154,3,2015_May_29_1129,10-200,q,200,,,,,,,,,,,,,,,,,0,0,0,0,None,14,1,57,1,3,0,3,0,None,,,480.9214489,None,0,,None,0.516072035,0.001049995,483.9235091,3.002585173,3.002060175,0.000524998,,,,,,,,,,,,,,,,,,,,,4.14,LearningTask,,,59.9563154,3,2015_May_29_1129,10-200,q,200,,,,,,,,,,,,,,,,,0,0,0,0,None,14,1,57,1,4,0,4,0,None,,,483.924109,None,0,,None,0.515930891,0.001104832,486.9259601,3.002450943,3.001851082,0.000599861,,,,,,,,,,,,,,,,,,,,,4.17,LearningTask,,,59.9563154,3,2015_May_29_1129,10-200,q,200,,,,,,,,,,,,,,,,,0,0,0,0,None,14,1,57,1,,,,,,,,,,,,,,,,,,,,,,,,,,,,,,,,,,,,,,,,LearningTask,,,59.9563154,3,2015_May_29_1129,10200,s,-200,,,,,,,,,,,,,,,,,0,0,0,0,None,14,2,58,2,0,0,0,0,None,,,487.632921,None,0,,None,0.510162115,0.001410007,490.6289489,3.702988863,2.996027947,0.706960916,,,,,,,,,,,,,,,,,,,,,0.7,LearningTask,,,59.9563154,3,2015_May_29_1129,10200,s,-200,,,,,,,,,,,,,,,,,0,0,0,0,None,14,2,58,2,1,0,1,0,None,,,490.629458,None,0,,None,0.516341925,0.000989914,493.6315341,3.002585173,3.002076149,0.000509024,,,,,,,,,,,,,,,,,,,,,0.35,LearningTask,,,59.9563154,3,2015_May_29_1129,10200,s,-200,,,,,,,,,,,,,,,,,0,0,0,0,None,14,2,58,2,2,0,2,0,None,,,493.6320591,None,0,,None,0.516202211,0.001005173,496.6338391,3.00230503,3.001780033,0.000524997,,,,,,,,,,,,,,,,,,,,,0.72,LearningTask,,,59.9563154,3,2015_May_29_1129,10200,s,-200,,,,,,,,,,,,,,,,,0,0,0,0,None,14,2,58,2,3,0,3,0,None,,,496.63446,None,0,,None,0.516294956,0.001015902,499.636332,3.002492905,3.001872063,0.000620842,,,,,,,,,,,,,,,,,,,,,0.44,LearningTask,,,59.9563154,3,2015_May_29_1129,10200,s,-200,,,,,,,,,,,,,,,,,0,0,0,0,None,14,2,58,2,4,0,4,0,None,,,499.6368811,None,0,,None,0.516031981,0.001039982,502.6386299,3.002297878,3.0017488,0.000549078,,,,,,,,,,,,,,,,,,,,,0.49,LearningTask,,,59.9563154,3,2015_May_29_1129,10200,s,-200,,,,,,,,,,,,,,,,,0,0,0,0,None,14,2,58,2,,,,,,,,,,,,,,,,,,,,,,,,,,,,,,,,,,,,,,,,LearningTask,,,59.9563154,3,2015_May_29_1129,10-200,q,200,,,,,,,,,,,,,,,,,0,0,0,0,None,14,3,59,1,0,0,0,0,None,,,503.32811,None,0,,None,0.510976076,0.000955105,506.3245239,3.685894013,2.996413946,0.689480067,,,,,,,,,,,,,,,,,,,,,0.78,LearningTask,,,59.9563154,3,2015_May_29_1129,10-200,q,200,,,,,,,,,,,,,,,,,0,0,0,0,None,14,3,59,1,1,0,1,0,None,,,506.3250539,None,0,,None,0.516185045,0.000993013,509.327107,3.002583027,3.002053023,0.000530004,,,,,,,,,,,,,,,,,,,,,0.86,LearningTask,,,59.9563154,3,2015_May_29_1129,10-200,q,200,,,,,,,,,,,,,,,,,0,0,0,0,None,14,3,59,1,2,0,2,0,None,,,509.327656,None,0,,None,0.516097069,0.000953913,512.3296211,3.002514124,3.001965046,0.000549078,,,,,,,,,,,,,,,,,,,,,1.24,LearningTask,,,59.9563154,3,2015_May_29_1129,10-200,q,200,,,,,,,,,,,,,,,,,0,0,0,0,None,14,3,59,1,3,0,3,0,None,,,512.330116,None,0,,None,0.516258001,0.000953913,515.331948,3.002326965,3.001832008,0.000494957,,,,,,,,,,,,,,,,,,,,,1.11,LearningTask,,,59.9563154,3,2015_May_29_1129,10-200,q,200,,,,,,,,,,,,,,,,,0,0,0,0,None,14,3,59,1,4,0,4,0,None,,,515.3325009,None,0,,None,0.516242981,0.001088142,518.3346701,3.002722025,3.002169132,0.000552893,,,,,,,,,,,,,,,,,,,,,1.18,LearningTask,,,59.9563154,3,2015_May_29_1129,10-200,q,200,,,,,,,,,,,,,,,,,0,0,0,0,None,14,3,59,1,,,,,,,,,,,,,,,,,,,,,,,,,,,,,,,,,,,,,,,,LearningTask,,,59.9563154,3,2015_May_29_1129,10200,w,200,,,,,,,,,,,,,,,,,0,0,0,0,None,15,0,60,0,0,0,0,0,None,,,519.0536811,None,0,,None,0.51523304,0.001320124,522.054219,3.71954894,3.000537872,0.719011068,,,,,,,,,,,,,,,,,,,,,4.02,LearningTask,,,59.9563154,3,2015_May_29_1129,10200,w,200,,,,,,,,,,,,,,,,,0,0,0,0,None,15,0,60,0,1,0,1,0,None,,,522.0547149,None,0,,None,0.51618886,0.000990868,525.0566039,3.002384902,3.001888991,0.000495911,,,,,,,,,,,,,,,,,,,,,4.04,LearningTask,,,59.9563154,3,2015_May_29_1129,10200,w,200,,,,,,,,,,,,,,,,,0,0,0,0,None,15,0,60,0,2,0,2,0,None,,,525.0571091,None,0,,None,0.516263962,0.000990152,528.059114,3.00251007,3.002004861,0.000505209,,,,,,,,,,,,,,,,,,,,,3.85,LearningTask,,,59.9563154,3,2015_May_29_1129,10200,w,200,,,,,,,,,,,,,,,,,0,0,0,0,None,15,0,60,0,3,0,3,0,None,,,528.0596681,None,0,,None,0.516070127,0.000997066,531.0612149,3.002100945,3.00154686,0.000554085,,,,,,,,,,,,,,,,,,,,,4.15,LearningTask,,,59.9563154,3,2015_May_29_1129,10200,w,200,,,,,,,,,,,,,,,,,0,0,0,0,None,15,0,60,0,4,0,4,0,None,,,531.0617089,None,0,,None,0.51612711,0.001147032,534.0635781,3.002363205,3.001869202,0.000494003,,,,,,,,,,,,,,,,,,,,,4,LearningTask,,,59.9563154,3,2015_May_29_1129,10200,w,200,,,,,,,,,,,,,,,,,0,0,0,0,None,15,0,60,0,,,,,,,,,,,,,,,,,,,,,,,,,,,,,,,,,,,,,,,,LearningTask,,,59.9563154,3,2015_May_29_1129,10-200,a,-200,,,,,,,,,,,,,,,,,0,0,0,0,None,15,1,61,3,0,0,0,0,None,,,534.7506239,None,0,,None,0.513513088,0.000923157,537.7667291,3.703150987,3.016105175,0.687045812,,,,,,,,,,,,,,,,,,,,,1.13,LearningTask,,,59.9563154,3,2015_May_29_1129,10-200,a,-200,,,,,,,,,,,,,,,,,0,0,0,0,None,15,1,61,3,1,0,1,0,None,,,537.7672501,None,0,,None,0.516175032,0.000990868,540.7690821,3.002352953,3.001832008,0.000520945,,,,,,,,,,,,,,,,,,,,,1.09,LearningTask,,,59.9563154,3,2015_May_29_1129,10-200,a,-200,,,,,,,,,,,,,,,,,0,0,0,0,None,15,1,61,3,2,0,2,0,None,,,540.7696409,None,0,,None,0.51617384,0.001091957,543.771888,3.002805949,3.002247095,0.000558854,,,,,,,,,,,,,,,,,,,,,0.76,LearningTask,,,59.9563154,3,2015_May_29_1129,10-200,a,-200,,,,,,,,,,,,,,,,,0,0,0,0,None,15,1,61,3,3,0,3,0,None,,,543.7723989,None,0,,None,0.516210079,0.000967026,546.7740121,3.002124071,3.00161314,0.000510931,,,,,,,,,,,,,,,,,,,,,0.75,LearningTask,,,59.9563154,3,2015_May_29_1129,10-200,a,-200,,,,,,,,,,,,,,,,,0,0,0,0,None,15,1,61,3,4,0,4,0,None,,,546.774488,None,0,,None,0.521129131,0.000946045,549.776716,3.002703905,3.002228022,0.000475883,,,,,,,,,,,,,,,,,,,,,1.22,LearningTask,,,59.9563154,3,2015_May_29_1129,10-200,a,-200,,,,,,,,,,,,,,,,,0,0,0,0,None,15,1,61,3,,,,,,,,,,,,,,,,,,,,,,,,,,,,,,,,,,,,,,,,LearningTask,,,59.9563154,3,2015_May_29_1129,10200,w,200,,,,,,,,,,,,,,,,,0,0,0,0,None,15,2,62,0,0,0,0,0,None,,,550.5043731,None,0,,None,0.506160975,0.001013041,553.4961281,3.719412088,2.991755008,0.72765708,,,,,,,,,,,,,,,,,,,,,4.15,LearningTask,,,59.9563154,3,2015_May_29_1129,10200,w,200,,,,,,,,,,,,,,,,,0,0,0,0,None,15,2,62,0,1,0,1,0,None,,,553.4966621,None,0,,None,0.516234159,0.000977039,556.4982121,3.002084017,3.001549959,0.000534058,,,,,,,,,,,,,,,,,,,,,3.94,LearningTask,,,59.9563154,3,2015_May_29_1129,10200,w,200,,,,,,,,,,,,,,,,,0,0,0,0,None,15,2,62,0,2,0,2,0,None,,,556.4987121,None,0,,None,0.516252041,0.000980139,559.500634,3.002421856,3.001921892,0.000499964,,,,,,,,,,,,,,,,,,,,,4.08,LearningTask,,,59.9563154,3,2015_May_29_1129,10200,w,200,,,,,,,,,,,,,,,,,0,0,0,0,None,15,2,62,0,3,0,3,0,None,,,559.5011351,None,0,,None,0.516324997,0.000956059,562.5033209,3.002686977,3.002185821,0.000501156,,,,,,,,,,,,,,,,,,,,,4.18,LearningTask,,,59.9563154,3,2015_May_29_1129,10200,w,200,,,,,,,,,,,,,,,,,0,0,0,0,None,15,2,62,0,4,0,4,0,None,,,562.503814,None,0,,None,0.516103029,0.000941038,565.50561,3.002289057,3.001796007,0.00049305,,,,,,,,,,,,,,,,,,,,,3.85,LearningTask,,,59.9563154,3,2015_May_29_1129,10200,w,200,,,,,,,,,,,,,,,,,0,0,0,0,None,15,2,62,0,,,,,,,,,,,,,,,,,,,,,,,,,,,,,,,,,,,,,,,,LearningTask,,,59.9563154,3,2015_May_29_1129,10-200,a,-200,,,,,,,,,,,,,,,,,0,0,0,0,None,15,3,63,3,0,0,0,0,None,,,566.2093451,None,0,,None,0.513762951,0.001389027,569.2089729,3.703362942,2.999627829,0.703735113,,,,,,,,,,,,,,,,,,,,,2.18,LearningTask,,,59.9563154,3,2015_May_29_1129,10-200,a,-200,,,,,,,,,,,,,,,,,0,0,0,0,None,15,3,63,3,1,0,1,0,None,,,569.209465,None,0,,None,0.516299009,0.000928164,572.2113709,3.002398014,3.001905918,0.000492096,,,,,,,,,,,,,,,,,,,,,1.88,LearningTask,,,59.9563154,3,2015_May_29_1129,10-200,a,-200,,,,,,,,,,,,,,,,,0,0,0,0,None,15,3,63,3,2,0,2,0,None,,,572.21188,None,0,,None,0.516031027,0.000952005,575.213578,3.002207041,3.001698017,0.000509024,,,,,,,,,,,,,,,,,,,,,1.81,LearningTask,,,59.9563154,3,2015_May_29_1129,10-200,a,-200,,,,,,,,,,,,,,,,,0,0,0,0,None,15,3,63,3,3,0,3,0,None,,,575.214081,None,0,,None,0.516173124,0.000939131,578.216306,3.002727985,3.002224922,0.000503063,,,,,,,,,,,,,,,,,,,,,1.82,LearningTask,,,59.9563154,3,2015_May_29_1129,10-200,a,-200,,,,,,,,,,,,,,,,,0,0,0,0,None,15,3,63,3,4,0,4,0,None,,,578.2168481,None,0,,None,0.515938997,0.001322031,581.218096,3.001790047,3.001247883,0.000542164,,,,,,,,,,,,,,,,,,,,,1.79,LearningTask,,,59.9563154,3,2015_May_29_1129,10-200,a,-200,,,,,,,,,,,,,,,,,0,0,0,0,None,15,3,63,3,,,,,,,,,,,,,,,,,,,,,,,,,,,,,,,,,,,,,,,,LearningTask,,,59.9563154,3,2015_May_29_1129,10200,w,200,,,,,,,,,,,,,,,,,0,0,0,0,None,16,0,64,0,0,0,0,0,None,,,581.9551799,None,0,,None,0.513454914,0.000913858,584.9545469,3.73645091,2.999366998,0.737083912,,,,,,,,,,,,,,,,,,,,,4.02,LearningTask,,,59.9563154,3,2015_May_29_1129,10200,w,200,,,,,,,,,,,,,,,,,0,0,0,0,None,16,0,64,0,1,0,1,0,None,,,584.9550481,None,0,,None,0.516200066,0.00100708,587.956954,3.002407074,3.001905918,0.000501156,,,,,,,,,,,,,,,,,,,,,4.08,LearningTask,,,59.9563154,3,2015_May_29_1129,10200,w,200,,,,,,,,,,,,,,,,,0,0,0,0,None,16,0,64,0,2,0,2,0,None,,,587.957454,None,0,,None,0.516283989,0.000908852,590.9593589,3.002404929,3.001904965,0.000499964,,,,,,,,,,,,,,,,,,,,,4.11,LearningTask,,,59.9563154,3,2015_May_29_1129,10200,w,200,,,,,,,,,,,,,,,,,0,0,0,0,None,16,0,64,0,3,0,3,0,None,,,590.959857,None,0,,None,0.516310215,0.000941038,593.962126,3.002767086,3.00226903,0.000498056,,,,,,,,,,,,,,,,,,,,,3.87,LearningTask,,,59.9563154,3,2015_May_29_1129,10200,w,200,,,,,,,,,,,,,,,,,0,0,0,0,None,16,0,64,0,4,0,4,0,None,,,593.962647,None,0,,None,0.516339064,0.00097394,596.9643719,3.002245903,3.001724959,0.000520944,,,,,,,,,,,,,,,,,,,,,4.12,LearningTask,,,59.9563154,3,2015_May_29_1129,10200,w,200,,,,,,,,,,,,,,,,,0,0,0,0,None,16,0,64,0,,,,,,,,,,,,,,,,,,,,,,,,,,,,,,,,,,,,,,,,LearningTask,,,59.9563154,3,2015_May_29_1129,10-200,q,200,,,,,,,,,,,,,,,,,0,0,0,0,None,16,1,65,1,0,0,0,0,None,,,597.6815729,None,0,,None,0.500074863,0.001015902,600.6843121,3.719940185,3.002739191,0.717200994,,,,,,,,,,,,,,,,,,,,,3.77,LearningTask,,,59.9563154,3,2015_May_29_1129,10-200,q,200,,,,,,,,,,,,,,,,,0,0,0,0,None,16,1,65,1,1,0,1,0,None,,,600.684798,None,0,,None,0.515890837,0.000931978,603.6865079,3.002195835,3.001709938,0.000485897,,,,,,,,,,,,,,,,,,,,,3.97,LearningTask,,,59.9563154,3,2015_May_29_1129,10-200,q,200,,,,,,,,,,,,,,,,,0,0,0,0,None,16,1,65,1,2,0,2,0,None,,,603.6869969,None,0,,None,0.516179085,0.000956059,606.688678,3.002170086,3.001681089,0.000488997,,,,,,,,,,,,,,,,,,,,,3.78,LearningTask,,,59.9563154,3,2015_May_29_1129,10-200,q,200,,,,,,,,,,,,,,,,,0,0,0,0,None,16,1,65,1,3,0,3,0,None,,,606.6892149,None,0,,None,0.515999079,0.001029015,609.6909649,3.002286911,3.001749992,0.000536919,,,,,,,,,,,,,,,,,,,,,4.25,LearningTask,,,59.9563154,3,2015_May_29_1129,10-200,q,200,,,,,,,,,,,,,,,,,0,0,0,0,None,16,1,65,1,4,0,4,0,None,,,609.691484,None,0,,None,0.51630497,0.001021147,612.6936259,3.00266099,3.002141953,0.000519037,,,,,,,,,,,,,,,,,,,,,3.9,LearningTask,,,59.9563154,3,2015_May_29_1129,10-200,q,200,,,,,,,,,,,,,,,,,0,0,0,0,None,16,1,65,1,,,,,,,,,,,,,,,,,,,,,,,,,,,,,,,,,,,,,,,,LearningTask,,,59.9563154,3,2015_May_29_1129,10-200,q,200,,,,,,,,,,,,,,,,,0,0,0,0,None,16,2,66,1,0,0,0,0,None,,,613.459703,None,0,,None,0.50109005,0.000957012,616.463351,3.769725084,3.003648042,0.766077042,,,,,,,,,,,,,,,,,,,,,1.1,LearningTask,,,59.9563154,3,2015_May_29_1129,10-200,q,200,,,,,,,,,,,,,,,,,0,0,0,0,None,16,2,66,1,1,0,1,0,None,,,616.463985,None,0,,None,0.516093016,0.001053095,619.4660981,3.002747059,3.002113104,0.000633955,,,,,,,,,,,,,,,,,,,,,1.05,LearningTask,,,59.9563154,3,2015_May_29_1129,10-200,q,200,,,,,,,,,,,,,,,,,0,0,0,0,None,16,2,66,1,2,0,2,0,None,,,619.466747,None,0,,None,0.516009092,0.000968218,622.468255,3.002156973,3.001507997,0.000648976,,,,,,,,,,,,,,,,,,,,,0.92,LearningTask,,,59.9563154,3,2015_May_29_1129,10-200,q,200,,,,,,,,,,,,,,,,,0,0,0,0,None,16,2,66,1,3,0,3,0,None,,,622.468791,None,0,,None,0.516339779,0.0009408,625.470679,3.002424002,3.001888037,0.000535965,,,,,,,,,,,,,,,,,,,,,1.11,LearningTask,,,59.9563154,3,2015_May_29_1129,10-200,q,200,,,,,,,,,,,,,,,,,0,0,0,0,None,16,2,66,1,4,0,4,0,None,,,625.471205,None,0,,None,0.51610899,0.000943184,628.473109,3.002429962,3.001904011,0.000525951,,,,,,,,,,,,,,,,,,,,,0.85,LearningTask,,,59.9563154,3,2015_May_29_1129,10-200,q,200,,,,,,,,,,,,,,,,,0,0,0,0,None,16,2,66,1,,,,,,,,,,,,,,,,,,,,,,,,,,,,,,,,,,,,,,,,LearningTask,,,59.9563154,3,2015_May_29_1129,10-200,a,-200,,,,,,,,,,,,,,,,,0,0,0,0,None,16,3,67,3,0,0,0,0,None,,,629.201766,None,0,,None,0.505398035,0.001643896,632.1922891,3.719180107,2.9905231,0.728657007,,,,,,,,,,,,,,,,,,,,,0.53,LearningTask,,,59.9563154,3,2015_May_29_1129,10-200,a,-200,,,,,,,,,,,,,,,,,0,0,0,0,None,16,3,67,3,1,0,1,0,None,,,632.192775,None,0,,None,0.516322851,0.00095892,635.1947441,3.002454996,3.001969099,0.000485897,,,,,,,,,,,,,,,,,,,,,0.74,LearningTask,,,59.9563154,3,2015_May_29_1129,10-200,a,-200,,,,,,,,,,,,,,,,,0,0,0,0,None,16,3,67,3,2,0,2,0,None,,,635.1953461,None,0,,None,0.516176939,0.001185894,638.1973531,3.002609015,3.002007008,0.000602007,,,,,,,,,,,,,,,,,,,,,0.61,LearningTask,,,59.9563154,3,2015_May_29_1129,10-200,a,-200,,,,,,,,,,,,,,,,,0,0,0,0,None,16,3,67,3,3,0,3,0,None,,,638.1978481,None,0,,None,0.516186953,0.001017094,641.199707,3.002353906,3.001858949,0.000494957,,,,,,,,,,,,,,,,,,,,,0.45,LearningTask,,,59.9563154,3,2015_May_29_1129,10-200,a,-200,,,,,,,,,,,,,,,,,0,0,0,0,None,16,3,67,3,4,0,4,0,None,,,641.200202,None,0,,None,0.516255856,0.000932932,644.2024319,3.002724886,3.002229929,0.000494957,,,,,,,,,,,,,,,,,,,,,0.5,LearningTask,,,59.9563154,3,2015_May_29_1129,10-200,a,-200,,,,,,,,,,,,,,,,,0,0,0,0,None,16,3,67,3,,,,,,,,,,,,,,,,,,,,,,,,,,,,,,,,,,,,,,,,LearningTask,,,59.9563154,3,2015_May_29_1129,10-200,q,200,,,,,,,,,,,,,,,,,0,0,0,0,None,17,0,68,1,0,0,0,0,None,,,644.9829431,None,0,,None,0.503513813,0.000926971,647.971947,3.769515038,2.989003897,0.780511141,,,,,,,,,,,,,,,,,,,,,1.2,LearningTask,,,59.9563154,3,2015_May_29_1129,10-200,q,200,,,,,,,,,,,,,,,,,0,0,0,0,None,17,0,68,1,1,0,1,0,None,,,647.9724431,None,0,,None,0.516297102,0.000945091,650.974463,3.002516031,3.002019882,0.000496149,,,,,,,,,,,,,,,,,,,,,1.13,LearningTask,,,59.9563154,3,2015_May_29_1129,10-200,q,200,,,,,,,,,,,,,,,,,0,0,0,0,None,17,0,68,1,2,0,2,0,None,,,650.9749789,None,0,,None,0.516076803,0.001005888,653.9768071,3.002344131,3.001828193,0.000515938,,,,,,,,,,,,,,,,,,,,,0.92,LearningTask,,,59.9563154,3,2015_May_29_1129,10-200,q,200,,,,,,,,,,,,,,,,,0,0,0,0,None,17,0,68,1,3,0,3,0,None,,,653.9772961,None,0,,None,0.516304016,0.00090909,656.9790139,3.002206803,3.001717806,0.000488997,,,,,,,,,,,,,,,,,,,,,1.18,LearningTask,,,59.9563154,3,2015_May_29_1129,10-200,q,200,,,,,,,,,,,,,,,,,0,0,0,0,None,17,0,68,1,4,0,4,0,None,,,656.979543,None,0,,None,0.516128063,0.001171112,659.9813881,3.002374172,3.001845121,0.000529051,,,,,,,,,,,,,,,,,,,,,1.13,LearningTask,,,59.9563154,3,2015_May_29_1129,10-200,q,200,,,,,,,,,,,,,,,,,0,0,0,0,None,17,0,68,1,,,,,,,,,,,,,,,,,,,,,,,,,,,,,,,,,,,,,,,,LearningTask,,,59.9563154,3,2015_May_29_1129,10200,s,-200,,,,,,,,,,,,,,,,,0,0,0,0,None,17,1,69,2,0,0,0,0,None,,,660.7302141,None,0,,None,0.501775026,0.000993967,663.734498,3.753109932,3.004283905,0.748826027,,,,,,,,,,,,,,,,,,,,,0.29,LearningTask,,,59.9563154,3,2015_May_29_1129,10200,s,-200,,,,,,,,,,,,,,,,,0,0,0,0,None,17,1,69,2,1,0,1,0,None,,,663.735122,None,0,,None,0.516091108,0.001029968,666.7369871,3.00248909,3.001865149,0.000623941,,,,,,,,,,,,,,,,,,,,,0.41,LearningTask,,,59.9563154,3,2015_May_29_1129,10200,s,-200,,,,,,,,,,,,,,,,,0,0,0,0,None,17,1,69,2,2,0,2,0,None,,,666.7374949,None,0,,None,0.516254902,0.001013041,669.739727,3.002739906,3.002232074,0.000507832,,,,,,,,,,,,,,,,,,,,,0.71,LearningTask,,,59.9563154,3,2015_May_29_1129,10200,s,-200,,,,,,,,,,,,,,,,,0,0,0,0,None,17,1,69,2,3,0,3,0,None,,,669.7402451,None,0,,None,0.516192913,0.001006842,672.741972,3.00224495,3.001726866,0.000518084,,,,,,,,,,,,,,,,,,,,,0.26,LearningTask,,,59.9563154,3,2015_May_29_1129,10200,s,-200,,,,,,,,,,,,,,,,,0,0,0,0,None,17,1,69,2,4,0,4,0,None,,,672.7425129,None,0,,None,0.51614213,0.001008034,675.744359,3.002387046,3.001846075,0.000540971,,,,,,,,,,,,,,,,,,,,,0.31,LearningTask,,,59.9563154,3,2015_May_29_1129,10200,s,-200,,,,,,,,,,,,,,,,,0,0,0,0,None,17,1,69,2,,,,,,,,,,,,,,,,,,,,,,,,,,,,,,,,,,,,,,,,LearningTask,,,59.9563154,3,2015_May_29_1129,10200,w,200,,,,,,,,,,,,,,,,,0,0,0,0,None,17,2,70,0,0,0,0,0,None,,,676.538399,None,0,,None,0.506504059,0.001028061,679.5306971,3.786338091,2.992298126,0.794039965,,,,,,,,,,,,,,,,,,,,,0.81,LearningTask,,,59.9563154,3,2015_May_29_1129,10200,w,200,,,,,,,,,,,,,,,,,0,0,0,0,None,17,2,70,0,1,0,1,0,None,,,679.5312171,None,0,,None,0.516150951,0.000957966,682.532804,3.002106905,3.001586914,0.000519991,,,,,,,,,,,,,,,,,,,,,1,LearningTask,,,59.9563154,3,2015_May_29_1129,10200,w,200,,,,,,,,,,,,,,,,,0,0,0,0,None,17,2,70,0,2,0,2,0,None,,,682.53336,None,0,,None,0.516036034,0.00097084,685.535248,3.002444029,3.001888037,0.000555992,,,,,,,,,,,,,,,,,,,,,0.81,LearningTask,,,59.9563154,3,2015_May_29_1129,10200,w,200,,,,,,,,,,,,,,,,,0,0,0,0,None,17,2,70,0,3,0,3,0,None,,,685.5357461,None,0,,None,0.516273975,0.000916004,688.5379691,3.002721071,3.002223014,0.000498057,,,,,,,,,,,,,,,,,,,,,0.83,LearningTask,,,59.9563154,3,2015_May_29_1129,10200,w,200,,,,,,,,,,,,,,,,,0,0,0,0,None,17,2,70,0,4,0,4,0,None,,,688.5385189,None,0,,None,0.515913963,0.000975847,691.5402269,3.002257824,3.00170803,0.000549794,,,,,,,,,,,,,,,,,,,,,0.93,LearningTask,,,59.9563154,3,2015_May_29_1129,10200,w,200,,,,,,,,,,,,,,,,,0,0,0,0,None,17,2,70,0,,,,,,,,,,,,,,,,,,,,,,,,,,,,,,,,,,,,,,,,LearningTask,,,59.9563154,3,2015_May_29_1129,10-200,q,200,,,,,,,,,,,,,,,,,0,0,0,0,None,17,3,71,1,0,0,0,0,None,,,692.3262851,None,0,,None,0.51499486,0.000941038,695.3269281,3.786701203,3.000643015,0.786058188,,,,,,,,,,,,,,,,,,,,,0.8,LearningTask,,,59.9563154,3,2015_May_29_1129,10-200,q,200,,,,,,,,,,,,,,,,,0,0,0,0,None,17,3,71,1,1,0,1,0,None,,,695.3274419,None,0,,None,0.516670227,0.000994205,698.32899,3.002061844,3.001548052,0.000513792,,,,,,,,,,,,,,,,,,,,,0.81,LearningTask,,,59.9563154,3,2015_May_29_1129,10-200,q,200,,,,,,,,,,,,,,,,,0,0,0,0,None,17,3,71,1,2,0,2,0,None,,,698.329505,None,0,,None,0.516523838,0.000934839,701.33166,3.002670049,3.002155065,0.000514984,,,,,,,,,,,,,,,,,,,,,0.85,LearningTask,,,59.9563154,3,2015_May_29_1129,10-200,q,200,,,,,,,,,,,,,,,,,0,0,0,0,None,17,3,71,1,3,0,3,0,None,,,701.3321691,None,0,,None,0.516195059,0.000956059,704.3339791,3.002319098,3.001810074,0.000509024,,,,,,,,,,,,,,,,,,,,,0.84,LearningTask,,,59.9563154,3,2015_May_29_1129,10-200,q,200,,,,,,,,,,,,,,,,,0,0,0,0,None,17,3,71,1,4,0,4,0,None,,,704.334475,None,0,,None,0.516337156,0.000936031,707.33606,3.002080917,3.001585007,0.00049591,,,,,,,,,,,,,,,,,,,,,1,LearningTask,,,59.9563154,3,2015_May_29_1129,10-200,q,200,,,,,,,,,,,,,,,,,0,0,0,0,None,17,3,71,1,,,,,,,,,,,,,,,,,,,,,,,,,,,,,,,,,,,,,,,,LearningTask,,,59.9563154,3,2015_May_29_1129,10-200,q,200,,,,,,,,,,,,,,,,,0,0,0,0,None,18,0,72,1,0,0,0,0,None,,,708.1441891,None,0,,None,0.509245157,0.001037121,711.139195,3.803134918,2.995005846,0.808129072,,,,,,,,,,,,,,,,,,,,,0.38,LearningTask,,,59.9563154,3,2015_May_29_1129,10-200,q,200,,,,,,,,,,,,,,,,,0,0,0,0,None,18,0,72,1,1,0,1,0,None,,,711.1397619,None,0,,None,0.516045094,0.001019955,714.141613,3.002418042,3.001851082,0.00056696,,,,,,,,,,,,,,,,,,,,,0.74,LearningTask,,,59.9563154,3,2015_May_29_1129,10-200,q,200,,,,,,,,,,,,,,,,,0,0,0,0,None,18,0,72,1,2,0,2,0,None,,,714.1421411,None,0,,None,0.516190052,0.000966072,717.1441259,3.002512931,3.001984834,0.000528097,,,,,,,,,,,,,,,,,,,,,0.3,LearningTask,,,59.9563154,3,2015_May_29_1129,10-200,q,200,,,,,,,,,,,,,,,,,0,0,0,0,None,18,0,72,1,3,0,3,0,None,,,717.1446719,None,0,,None,0.516257048,0.000999928,720.1467421,3.002616167,3.002070188,0.000545979,,,,,,,,,,,,,,,,,,,,,0.38,LearningTask,,,59.9563154,3,2015_May_29_1129,10-200,q,200,,,,,,,,,,,,,,,,,0,0,0,0,None,18,0,72,1,4,0,4,0,None,,,720.1472671,None,0,,None,0.516396999,0.000931025,723.1492441,3.002501965,3.001976967,0.000524998,,,,,,,,,,,,,,,,,,,,,0.41,LearningTask,,,59.9563154,3,2015_May_29_1129,10-200,q,200,,,,,,,,,,,,,,,,,0,0,0,0,None,18,0,72,1,,,,,,,,,,,,,,,,,,,,,,,,,,,,,,,,,,,,,,,,LearningTask,,,59.9563154,3,2015_May_29_1129,10200,s,-200,,,,,,,,,,,,,,,,,0,0,0,0,None,18,1,73,2,0,0,0,0,None,,,723.9117191,None,0,,None,0.504453182,0.000982046,726.9021699,3.752925873,2.990450859,0.762475014,,,,,,,,,,,,,,,,,,,,,0.93,LearningTask,,,59.9563154,3,2015_May_29_1129,10200,s,-200,,,,,,,,,,,,,,,,,0,0,0,0,None,18,1,73,2,1,0,1,0,None,,,726.902817,None,0,,None,0.515822887,0.001142025,729.904778,3.002608061,3.001960993,0.000647068,,,,,,,,,,,,,,,,,,,,,1.22,LearningTask,,,59.9563154,3,2015_May_29_1129,10200,s,-200,,,,,,,,,,,,,,,,,0,0,0,0,None,18,1,73,2,2,0,2,0,None,,,729.905601,None,0,,None,0.515495062,0.001070023,732.9066041,3.001826048,3.001003027,0.000823021,,,,,,,,,,,,,,,,,,,,,1.18,LearningTask,,,59.9563154,3,2015_May_29_1129,10200,s,-200,,,,,,,,,,,,,,,,,0,0,0,0,None,18,1,73,2,3,0,3,0,None,,,732.9071741,None,0,,None,0.515974045,0.00108695,735.9090431,3.002439022,3.001868964,0.000570058,,,,,,,,,,,,,,,,,,,,,1.16,LearningTask,,,59.9563154,3,2015_May_29_1129,10200,s,-200,,,,,,,,,,,,,,,,,0,0,0,0,None,18,1,73,2,4,0,4,0,None,,,735.9095671,None,0,,None,0.516223907,0.000967026,738.9116201,3.002577066,3.002053022,0.000524044,,,,,,,,,,,,,,,,,,,,,1.15,LearningTask,,,59.9563154,3,2015_May_29_1129,10200,s,-200,,,,,,,,,,,,,,,,,0,0,0,0,None,18,1,73,2,,,,,,,,,,,,,,,,,,,,,,,,,,,,,,,,,,,,,,,,LearningTask,,,59.9563154,3,2015_May_29_1129,10-200,a,-200,,,,,,,,,,,,,,,,,0,0,0,0,None,18,2,74,3,0,0,0,0,None,,,739.725204,None,0,,None,0.503731012,0.001349926,742.7147419,3.803121805,2.989537954,0.813583851,,,,,,,,,,,,,,,,,,,,,2.06,LearningTask,,,59.9563154,3,2015_May_29_1129,10-200,a,-200,,,,,,,,,,,,,,,,,0,0,0,0,None,18,2,74,3,1,0,1,0,None,,,742.715301,None,0,,None,0.516385078,0.001008987,745.7174389,3.002696991,3.002137899,0.000559092,,,,,,,,,,,,,,,,,,,,,1.84,LearningTask,,,59.9563154,3,2015_May_29_1129,10-200,a,-200,,,,,,,,,,,,,,,,,0,0,0,0,None,18,2,74,3,2,0,2,0,None,,,745.717943,None,0,,None,0.50002408,0.000980139,748.719553,3.002114058,3.001610041,0.000504017,,,,,,,,,,,,,,,,,,,,,1.76,LearningTask,,,59.9563154,3,2015_May_29_1129,10-200,a,-200,,,,,,,,,,,,,,,,,0,0,0,0,None,18,2,74,3,3,0,3,0,None,,,748.7200489,None,0,,None,0.516288042,0.000933886,751.7220271,3.002474069,3.001978159,0.00049591,,,,,,,,,,,,,,,,,,,,,2.06,LearningTask,,,59.9563154,3,2015_May_29_1129,10-200,a,-200,,,,,,,,,,,,,,,,,0,0,0,0,None,18,2,74,3,4,0,4,0,None,,,751.72258,None,0,,None,0.516103983,0.001127005,754.7244389,3.002411843,3.00185895,0.000552893,,,,,,,,,,,,,,,,,,,,,1.83,LearningTask,,,59.9563154,3,2015_May_29_1129,10-200,a,-200,,,,,,,,,,,,,,,,,0,0,0,0,None,18,2,74,3,,,,,,,,,,,,,,,,,,,,,,,,,,,,,,,,,,,,,,,,LearningTask,,,59.9563154,3,2015_May_29_1129,10200,w,200,,,,,,,,,,,,,,,,,0,0,0,0,None,18,3,75,0,0,0,0,0,None,,,755.5111051,None,0,,None,0.513903856,0.00096488,758.510453,3.78601408,2.999347925,0.786666155,,,,,,,,,,,,,,,,,,,,,0.74,LearningTask,,,59.9563154,3,2015_May_29_1129,10200,w,200,,,,,,,,,,,,,,,,,0,0,0,0,None,18,3,75,0,1,0,1,0,None,,,758.51104,None,0,,None,0.51602006,0.000993013,761.51284,3.002387047,3.001800061,0.000586986,,,,,,,,,,,,,,,,,,,,,0.64,LearningTask,,,59.9563154,3,2015_May_29_1129,10200,w,200,,,,,,,,,,,,,,,,,0,0,0,0,None,18,3,75,0,2,0,2,0,None,,,761.5133591,None,0,,None,0.516223907,0.000963926,764.5154531,3.002613067,3.00209403,0.000519037,,,,,,,,,,,,,,,,,,,,,0.73,LearningTask,,,59.9563154,3,2015_May_29_1129,10200,w,200,,,,,,,,,,,,,,,,,0,0,0,0,None,18,3,75,0,3,0,3,0,None,,,764.515964,None,0,,None,0.516224861,0.000947952,767.51789,3.002436877,3.001925946,0.000510931,,,,,,,,,,,,,,,,,,,,,0.63,LearningTask,,,59.9563154,3,2015_May_29_1129,10200,w,200,,,,,,,,,,,,,,,,,0,0,0,0,None,18,3,75,0,4,0,4,0,None,,,767.518487,None,0,,None,0.516222954,0.001072884,770.520638,3.002748012,3.002151012,0.000597,,,,,,,,,,,,,,,,,,,,,0.44,LearningTask,,,59.9563154,3,2015_May_29_1129,10200,w,200,,,,,,,,,,,,,,,,,0,0,0,0,None,18,3,75,0,,,,,,,,,,,,,,,,,,,,,,,,,,,,,,,,,,,,,,,,LearningTask,,,59.9563154,3,2015_May_29_1129,10200,w,200,,,,,,,,,,,,,,,,,0,0,0,0,None,19,0,76,0,0,0,0,0,None,,,771.3484371,None,0,,None,0.506772041,0.00090909,774.3402071,3.819569111,2.991770029,0.827799082,,,,,,,,,,,,,,,,,,,,,4,LearningTask,,,59.9563154,3,2015_May_29_1129,10200,w,200,,,,,,,,,,,,,,,,,0,0,0,0,None,19,0,76,0,1,0,1,0,None,,,774.3406949,None,0,,None,0.516422033,0.000939131,777.3425469,3.00233984,3.001852036,0.000487804,,,,,,,,,,,,,,,,,,,,,3.8,LearningTask,,,59.9563154,3,2015_May_29_1129,10200,w,200,,,,,,,,,,,,,,,,,0,0,0,0,None,19,0,76,0,2,0,2,0,None,,,777.3430631,None,0,,None,0.516229868,0.001003027,780.3450301,3.002483129,3.001966953,0.000516176,,,,,,,,,,,,,,,,,,,,,3.76,LearningTask,,,59.9563154,3,2015_May_29_1129,10200,w,200,,,,,,,,,,,,,,,,,0,0,0,0,None,19,0,76,0,3,0,3,0,None,,,780.3456271,None,0,,None,0.516124964,0.00112009,783.3470299,3.001999855,3.001402855,0.000597,,,,,,,,,,,,,,,,,,,,,3.97,LearningTask,,,59.9563154,3,2015_May_29_1129,10200,w,200,,,,,,,,,,,,,,,,,0,0,0,0,None,19,0,76,0,4,0,4,0,None,,,783.347553,None,0,,None,0.516162157,0.001005173,786.3496361,3.002606154,3.002083063,0.000523091,,,,,,,,,,,,,,,,,,,,,4.13,LearningTask,,,59.9563154,3,2015_May_29_1129,10200,w,200,,,,,,,,,,,,,,,,,0,0,0,0,None,19,0,76,0,,,,,,,,,,,,,,,,,,,,,,,,,,,,,,,,,,,,,,,,LearningTask,,,59.9563154,3,2015_May_29_1129,10200,s,-200,,,,,,,,,,,,,,,,,0,0,0,0,None,19,1,77,2,0,0,0,0,None,,,787.1506259,None,0,,None,0.516706944,0.000888109,790.152734,3.803097963,3.002108097,0.800989866,,,,,,,,,,,,,,,,,,,,,0.39,LearningTask,,,59.9563154,3,2015_May_29_1129,10200,s,-200,,,,,,,,,,,,,,,,,0,0,0,0,None,19,1,77,2,1,0,1,0,None,,,790.1532221,None,0,,None,0.516269922,0.000916004,793.1552131,3.002479077,3.001991034,0.000488043,,,,,,,,,,,,,,,,,,,,,0.27,LearningTask,,,59.9563154,3,2015_May_29_1129,10200,s,-200,,,,,,,,,,,,,,,,,0,0,0,0,None,19,1,77,2,2,0,2,0,None,,,793.1557159,None,0,,None,0.516505957,0.000968933,796.158016,3.002802848,3.002300024,0.000502824,,,,,,,,,,,,,,,,,,,,,0.49,LearningTask,,,59.9563154,3,2015_May_29_1129,10200,s,-200,,,,,,,,,,,,,,,,,0,0,0,0,None,19,1,77,2,3,0,3,0,None,,,796.158529,None,0,,None,0.512100935,0.001021862,799.1600721,3.002056122,3.001543045,0.000513077,,,,,,,,,,,,,,,,,,,,,0.36,LearningTask,,,59.9563154,3,2015_May_29_1129,10200,s,-200,,,,,,,,,,,,,,,,,0,0,0,0,None,19,1,77,2,4,0,4,0,None,,,799.160558,None,0,,None,0.516261101,0.000946999,802.1624429,3.002370835,3.001884938,0.000485897,,,,,,,,,,,,,,,,,,,,,0.57,LearningTask,,,59.9563154,3,2015_May_29_1129,10200,s,-200,,,,,,,,,,,,,,,,,0,0,0,0,None,19,1,77,2,,,,,,,,,,,,,,,,,,,,,,,,,,,,,,,,,,,,,,,,LearningTask,,,59.9563154,3,2015_May_29_1129,10-200,q,200,,,,,,,,,,,,,,,,,0,0,0,0,None,19,2,78,1,0,0,0,0,None,,,803.004714,None,0,,None,0.508341074,0.000999212,805.9989131,3.836470127,2.994199038,0.842271089,,,,,,,,,,,,,,,,,,,,,3.76,LearningTask,,,59.9563154,3,2015_May_29_1129,10-200,q,200,,,,,,,,,,,,,,,,,0,0,0,0,None,19,2,78,1,1,0,1,0,None,,,805.999383,None,0,,None,0.516202927,0.000937939,809.0010149,3.002101898,3.001631975,0.000469923,,,,,,,,,,,,,,,,,,,,,3.96,LearningTask,,,59.9563154,3,2015_May_29_1129,10-200,q,200,,,,,,,,,,,,,,,,,0,0,0,0,None,19,2,78,1,2,0,2,0,None,,,809.0014911,None,0,,None,0.516149998,0.001003981,812.0034311,3.002416134,3.001940012,0.000476122,,,,,,,,,,,,,,,,,,,,,4.23,LearningTask,,,59.9563154,3,2015_May_29_1129,10-200,q,200,,,,,,,,,,,,,,,,,0,0,0,0,None,19,2,78,1,3,0,3,0,None,,,812.003931,None,0,,None,0.516534805,0.000978947,815.0060241,3.00259304,3.002093076,0.000499964,,,,,,,,,,,,,,,,,,,,,3.82,LearningTask,,,59.9563154,3,2015_May_29_1129,10-200,q,200,,,,,,,,,,,,,,,,,0,0,0,0,None,19,2,78,1,4,0,4,0,None,,,815.0066431,None,0,,None,0.515985966,0.001091957,818.008534,3.002509833,3.001890898,0.000618935,,,,,,,,,,,,,,,,,,,,,3.8,LearningTask,,,59.9563154,3,2015_May_29_1129,10-200,q,200,,,,,,,,,,,,,,,,,0,0,0,0,None,19,2,78,1,,,,,,,,,,,,,,,,,,,,,,,,,,,,,,,,,,,,,,,,LearningTask,,,59.9563154,3,2015_May_29_1129,10200,s,-200,,,,,,,,,,,,,,,,,0,0,0,0,None,19,3,79,2,0,0,0,0,None,,,818.8211281,None,0,,None,0.505092144,0.000949144,821.8117311,3.803197145,2.99060297,0.812594175,,,,,,,,,,,,,,,,,,,,,0.73,LearningTask,,,59.9563154,3,2015_May_29_1129,10200,s,-200,,,,,,,,,,,,,,,,,0,0,0,0,None,19,3,79,2,1,0,1,0,None,,,821.8122261,None,0,,None,0.516121149,0.000950098,824.814014,3.002282858,3.001787901,0.000494957,,,,,,,,,,,,,,,,,,,,,0.34,LearningTask,,,59.9563154,3,2015_May_29_1129,10200,s,-200,,,,,,,,,,,,,,,,,0,0,0,0,None,19,3,79,2,2,0,2,0,None,,,824.8145361,None,0,,None,0.516204119,0.000985146,827.816411,3.00239706,3.001874923,0.000522137,,,,,,,,,,,,,,,,,,,,,0.4,LearningTask,,,59.9563154,3,2015_May_29_1129,10200,s,-200,,,,,,,,,,,,,,,,,0,0,0,0,None,19,3,79,2,3,0,3,0,None,,,827.816896,None,0,,None,0.516200066,0.000972033,830.8189659,3.002554894,3.00206995,0.000484944,,,,,,,,,,,,,,,,,,,,,0.35,LearningTask,,,59.9563154,3,2015_May_29_1129,10200,s,-200,,,,,,,,,,,,,,,,,0,0,0,0,None,19,3,79,2,4,0,4,0,None,,,830.81949,None,0,,None,0.516009092,0.000966072,833.8208599,3.001893997,3.001369953,0.000524044,,,,,,,,,,,,,,,,,,,,,0.63,LearningTask,,,59.9563154,3,2015_May_29_1129,10200,s,-200,,,,,,,,,,,,,,,,,0,0,0,0,None,19,3,79,2,,,,,,,,,,,,,,,,,,,,,,,,,,,,,,,,,,,,,,,,LearningTask,,,59.9563154,3,2015_May_29_1129,10200,s,-200,,,,,,,,,,,,,,,,,0,0,0,0,None,20,0,80,2,0,0,0,0,None,,,834.6900589,None,0,,None,0.514775038,0.000908136,837.69068,3.869820118,3.00062108,0.869199038,,,,,,,,,,,,,,,,,,,,,2.24,LearningTask,,,59.9563154,3,2015_May_29_1129,10,,,,,,,,,,,,,,,,,,,,,,,,,,,,,,,,,,,,,,,,,,,,,,,,,,,,,,,,,,,,,,,,,,,,,,,,,,,,,,,,,,,,,,,,,,,,,,,,,,,,,,,,,,,,,,,,,,,,,,,,,,,,,,,,,,,,,,,,,,,,,,,,,,,,,,,,,,,,,,,,,,,,,,,,,,,,,,,,,,,,,,,,,,,,,,,,,,,,,,,,,,,,,,,,,,,,,,,,,,,,,,,,,,,,,,,,,,,,,,,,,,,,,,,,,,,,,,,,,,,,,,,,,,,,,,,,,,,,,,,,,,,,,,,,,,,,,,,,,,,,,,,,,,,,,,,,,,,,,,,,,,,,,,,,,,,,,,,,,,,,,,,,,,,,,,,,,,,,,,,,,,,,,,,,,,,,,,,,,,,,,,,,,,,,,,,,,,,,,,,,,,,,,,,,,,,,,,,,,,,,,,,,,,,,,,,,,,,,,,,,,,,,,,,,,,,,,,,,,,,,,,,,,,,,,,,,,,,,,,,,,,,,,,,,,,,,,,,,,,,,,,,,,,,,,,,,,,,,,,,,,,,,,,,,,,,,,,,,,,,,,,,,,,,,,,,,,,,,,,,,,,,,,,,,,,,,,,,,,,,,,,,,,,,,,,,,,,,,,,,,,,,,,,,,,,,,,,,,,,,,,,,,,,,,,,,,,,,,,,,,,,,,,,,,,,,,,,,,,,,,,,,,,,,,,,,,,,,,,,,,,,,,,,,,,,,,,,,,,,,,,,,,,,,,,,,,,,,,,,,,,,,,,,,,,,,,,,,,,,,,,,,,,,,,,,,,,,,,,,,,,,,,,,,,,,,,,,,,,,,,,,,,,,,,,,,,,,,,,,,,,,,,,,,,,,,,,,,,,,,,,,,,,,,,,,,,,,,,,,,,,,,,,,,,,,,,,,,,,,,,,,,,,,,,,,,,,,,,,,,,,,,,,,,,,,,,,,,,,,,,,,,,,,,,,,,,,,,,,,,,,,,,,,,,,,,,,,,,,,,,,,,,,,,,,,,,,,,,,,,,,,,,,,,,,,,,,,,,,,,,,,,,,,,,,,,,,,,,,,,,,,,,,,,,,,,,,,,,,,,,,,,,,,,,,,,,,,,,,,,,,,,,,,,,,,,,,,,,,,,,,,,,,,,,,,,,,,,,,,,,,,,,,,,,,,,,,,,,,,,,,,,,,,,,,,,,,,,,,,,,,,,,,,,,,,,,,,,,,,,,,,,,,,,,,,,,,,,,,,,,,,,,,,,,,,,,,,,,,,,,,,,,,,,,,,,,,,,,,,,,,,,,,,,,,,,,,,,,,,,,,,,,,,,,,,,,,,,,,,,,,,,,,,,,,,,,,,,,,,,,,,,,,,,,,,,,,,,,,,,,,,,,,,,,,,,,,,,,,,,,,,,,,,,,,,,,,,,,,,,,,,,,,,,,,,,,,,,,,,,,,,,,,,,,,,,,,,,,,,,,,,,,,,,,,,,,,,,,,,,,,,,,,,,,,,,,,,,,,,,,,,,,,,,,,,,,,,,,,,,,,,,,,,,,,,,,,,,,,,,,,,,,,,,,,,,,,,,,,,,,,,,,,,,,,,,,,,,,,,,,,,,,,,,,,,,,,,,,,,,,,,,,,,,,,,,,,,,,,,,,,,,,,,,,,,,,,,,,,,,,,,,,,,,,,,,,,,,,,,,,,,,,,,,,,,,,,,,,,,,,,,,,,,,,,,,,,,,,,,,,,,,,,,,,,,,,,,,,,,,,,,,,,,,,,,,,,,,,,,,,,,,,,,,,,,,,,,,,,,,,,,,,,,,,,,,,,,,,,,,,,,,,,,,,,,,,,,,,,,,,,,,,,,,,,,,,,,,,,,,,,,,,,,,,,,,,,,,,,,,,,,,,,,,,,,,,,,,,,,,,,,,,,,,,,,,,,,,,,,,,,,,,,,,,,,,,,,,,,,,,,,,,,,,,,,,,,,,,,,,,,,,,,,,,,,,,,,,,,,,,,,,,,,,,,,,,,,,,,,,,,,,,,,,,,,,,,,,,,,,,,,,,,,,,,,,,,,,,,,,,,,,,,,,,,,,,,,,,,,,,,,,,,,,,,,,,,,,,,,,,,,,,,,,,,,,,,,,,,,,,,,,,,,,,,,,,,,,,,,,,,,,,,,,,,,,,,,,,,,,,,,,,,,,,,,,,,,,,,,,,,,,,,,,,,,,,,,,,,,,,,,,,,,,,,,,,,,,,,,,,,,,,,,,,,,,,,,,,,,,,,,,,,,,,,,,,,,,,,,,,,,,,,,,,,,,,,,,,,,,,,,,,,,,,,,,,,,,,,,,,,,,,,,,,,,,,,,,,,,,,,,,,,,,,,,,,,,,,,,,,,,,,,,,,,,,,,,,,,,,,,,,,,,,,,,,,,,,,,,,,,,,,,,,,,,,,,,,,,,,,,,,,,,,,,,,,,,,,,,,,,,,,,,,,,,,,,,,,,,,,,,,,,,,,,,,,,,,,,,,,,,,,,,,,,,,,,,,,,,,,,,,,,,,,,,,,,,,,,,,,,,,,,,,,,,,,,,,,,,,,,,,,,,,,,,,,,,,,,,,,,,,,,,,,,,,,,,,,,,,,,,,,,,,,,,,,,,,,,,,,,,,,,,,,,,,,,,,,,,,,,,,,,,,,,,,,,,,,,,,,,,,,,,,,,,,,,,,,,,,,,,,,,,,,,,,,,,,,,,,,,,,,,,,,,,,,,,,,,,,,,,,,,,,,,,,,,,,,,,,,,,,,,,,,,,,,,,,,,,,,,,,,,,,,,,,,,,,,,,,,,,,,,,,,,,,,,,,,,,,,,,,,,,,,,,,,,,,,,,,,,,,,,,,,,,,,,,,,,,,,,,,,,,,,,,,,,,,,,,,,,,,,,,,,,,,,,,,,,,,,,,,,,,,,,,,,,,,,,,,,,,,,,,,,,,,,,,,,,,,,,,,,,,,,,,,,,,,,,,,,,,,,,,,,,,,,,,,,,,,,,,,,,,,,,,,,,,,,,,,,,,,,,,,,,,,,,,,,,,,,,,,,,,,,,,,,,,,,,,,,,,,,,,,,,,,,,,,,,,,,,,,,,,,,,,,,,,,,,,,,,,,,,,,,,,,,,,,,,,,,,,,,,,,,,,,,,,,,,,,,,,,,,,,,,,,,,,,,,,,,,,,,,,,,,,,,,,,,,,,,,,,,,,,,,,,,,,,,,,,,,,,,,,,,,,,,,,,,,,,,,,,,,,,,,,,,,,,,,,,,,,,,,,,,,,,,,,,,,,,,,,,,,,,,,,,,,,,,,,,,,,,,,,,,,,,,,,,,,,,,,,,,,,,,,,,,,,,,,,,,,,,,,,,,,,,,,,,,,,,,,,,,,,,,,,,,,,,,,,,,,,,,,,,,,,,,,,,,,,,,,,,,,,,,,,,,,,,,,,,,,,,,,,,,,,,,,,,,,,,,,,,,,,,,,,,,,,,,,,,,,,,,,,,,,,,,,,,,,,,,,,,,,,,,,,,,,,,,,,,,,,,,,,,,,,,,,,,,,,,,,,,,,,,,,,,,,,,,,,,,,,,,,,,,,,,,,,,,,,,,,,,,,,,,,,,,,,,,,,,,,,,,,,,,,,,,,,,,,,,,,,,,,,,,,,,,,,,,,,,,,,,,,,,,,,,,,,,,,,,,,,,,,,,,,,,,,,,,,,,,,,,,,,,,,,,,,,,,,,,,,,,,,,,,,,,,,,,,,,,,,,,,,,,,,,,,,,,,,,,,,,,,,,,,,,,,,,,,,,,,,,,,,,,,,,,,,,,,,,,,,,,,,,,,,,,,,,,,,,,,,,,,,,,,,,,,,,,,,,,,,,,,,,,,,,,,,,,,,,,,,,,,,,,,,,,,,,,,,,,,,,,,,,,,,,,,,,,,,,,,,,,,,,,,,,,,,,,,,,,,,,,,,,,,,,,,,,,,,,,,,,,,,,,,,,,,,,,,,,,,,,,,,,,,,,,,,,,,,,,,,,,,,,,,,,,,,,,,,,,,,,,,,,,,,,,,,,,,,,,,,,,,,,,,,,,,,,,,,,,,,,,,,,,,,,,,,,,,,,,,,,,,,,,,,,,,,,,,,,,,,,,,,,,,,,,,,,,,,,,,,,,,,,,,,,,,,,,,,,,,,,,,,,,,,,,,,,,,,,,,,,,,,,,,,,,,,,,,,,,,,,,,,,,,,,,,,,,,,,,,,,,,,,,,,,,,,,,,,,,,,,,,,,,,,,,,,,,,,,,,,,,,,,,,,,,,,,,,,,,,,,,,,,,,,,,,,,,,,,,,,,,,,,,,,,,,,,,,,,,,,,,,,,,,,,,,,,,,,,,,,,,,,,,,,,,,,,,,,,,,,,,,,,,,,,,,,,,,,,,,,,,,,,,,,,,,,,,,,,,,,,,,,,,,,,,,,,,,,,,,,,,,,,,,,,,,,,,,,,,,,,,,,,,,,,,,,,,,,,,,,,,,,,,,,,,,,,,,,,,,,,,,,,,,,,,,,,,,,,,,,,,,,,,,,,,,,,,,,,,,,,,,,,,,,,,,,,,,,,,,,,,,,,,,,,,,,,,,,,,,,,,,,,,,,,,,,,,,,,,,,,,,,,,,,,,,,,,,,,,,,,,,,,,,,,,,,,,,,,,,,,,,,,,,,,,,,,,,,,,,,,,,,,,,,,,,,,,,,,,,,,,,,,,,,,,,,,,,,,,,,,,,,,,,,,,,,,,,,,,,,,,,,,,,,,,,,,,,,,,,,,,,,,,,,,,,,,,,,,,,,,,,,,,,,,,,,,,,,,,,,,,,,,,,,,,,,,,,,,,,,,,,,,,,,,,,,,,,,,,,,,,,,,,,,,,,,,,,,,,,,,,,,,,,,,,,,,,,,,,,,,,,,,,,,,,,,,,,,,,,,,,,,,,,,,,,,,,,,,,,,,,,,,,,,,,,,,,,,,,,,,,,,,,,,,,,,,,,,,,,,,,,,,,,,,,,,,,,,,,,,,,,,,,,,,,,,,,,,,,,,,,,,,,,,,,,,,,,,,,,,,,,,,,,,,,,,,,,,,,,,,,,,,,,,,,,,,,,,,,,,,,,,,,,,,,,,,,,,,,,,,,,,,,,,,,,,,,,,,,,,,,,,,,,,,,,,,,,,,,,,,,,,,,,,,,,,,,,,,,,,,,,,,,,,,,,,,,,,,,,,,,,,,,,,,,,,,,,,,,,,,,,,,,,,,,,,,,,,,,,,,,,,,,,,,,,,,,,,,,,,,,,,,,,,,,,,,,,,,,,,,,,,,,,,,,,,,,,,,,,,,,,,,,,,,,,,,,,,,,,,,,,,,,,,,,,,,,,,,,,,,,,,,,,,,,,,,,,,,,,,,,,,,,,,,,,,,,,,,,,,,,,,,,,,,,,,,,,,,,,,,,,,,,,,,,,,,,,,,,,,,,,,,,,,,,,,,,,,,,,,,,,,,,,,,,,,,,,,,,,,,,,,,,,,,,,,,,,,,,,,,,,,,,,,,,,,,,,,,,,,,,,,,,,,,,,,,,,,,,,,,,,,,,,,,,,,,,,,,,,,,,,,,,,,,,,,,,,,,,,,,,,,,,,,,,,,,,,,,,,,,,,,,,,,,,,,,,,,,,,,,,,,,,,,,,,,,,,,,,,,,,,,,,,,,,,,,,,,,,,,,,,,,,,,,,,,,,,,,,,,,,,,,,,,,,,,,,,,,,,,,,,,,,,,,,,,,,,,,,,,,,,,,,,,,,,,,,,,,,,,,,,,,,,,,,,,,,,,,,,,,,,,,,,,,,,,,,,,,,,,,,,,,,,,,,,,,,,,,,,,,,,,,,,,,,,,,,,,,,,,,,,,,,,,,,,,,,,,,,,,,,,,,,,,,,,,,,,,,,,,,,,,,,,,,,,,,,,,,,,,,,,,,,,,,,,,,,,,,,,,,,,,,,,,,,,,,,,,,,,,,,,,,,,,,,,,,,,,,,,,,,,,,,,,,,,,,,,,,,,,,,,,,,,,,,,,,,,,,,,,,,,,,,,,,,,,,,,,,,,,,,,,,,,,,,,,,,,,,,,,,,,,,,,,,,,,,,,,,,,,,,,,,,,,,,,,,,,,,,,,,,,,,,,,,,,,,,,,,,,,,,,,,,,,,,,,,,,,,,,,,,,,,,,,,,,,,,,,,,,,,,,,,,,,,,,,,,,,,,,,,,,,,,,,,,,,,,,,,,,,,,,,,,,,,,,,,,,,,,,,,,,,,,,,,,,,,,,,,,,,,,,,,,,,,,,,,,,,,,,,,,,,,,,,,,,,,,,,,,,,,,,,,,,,,,,,,,,,,,,,,,,,,,,,,,,,,,,,,,,,,,,,,,,,,,,,,,,,,,,,,,,,,,,,,,,,,,,,,,,,,,,,,,,,,,,,,,,,,,,,,,,,,,,,,,,,,,,,,,,,,,,,,,,,,,,,,,,,,,,,,,,,,,,,,,,,,,,,,,,,,,,,,,,,,,,,,,,,,,,,,,,,,,,,,,,,,,,,,,,,,,,,,,,,,,,,,,,,,,,,,,,,,,,,,,,,,,,,,,,,,,,,,,,,,,,,,,,,,,,,,,,,,,,,,,,,,,,,,,,,,,,,,,,,,,,,,,,,,,,,,,,,,,,,,,,,,,,,,,,,,,,,,,,,,,,,,,,,,,,,,,,,,,,,,,,,,,,,,,,,,,,,,,,,,,,,,,,,,,,,,,,,,,,,,,,,,,,,,,,,,,,,,,,,,,,,,,,,,,,,,,,,,,,,,,,,,,,,,,,,,,,,,,,,,,,,,,,,,,,,,,,,,,,,,,,,,,,,,,,,,,,,,,,,,,,,,,,,,,,,,,,,,,,,,,,,,,,,,,,,,,,,,,,,,,,,,,,,,,,,,,,,,,,,,,,,,,,,,,,,,,,,,,,,,,,,,,,,,,,,,,,,,,,,,,,,,,,,,,,,,,,,,,,,,,,,,,,,,,,,,,,,,,,,,,,,,,,,,,,,,,,,,,,,,,,,,,,,,,,,,,,,,,,,,,,,,,,,,,,,,,,,,,,,,,,,,,,,,,,,,,,,,,,,,,,,,,,,,,,,,,,,,,,,,,,,,,,,,,,,,,,,,,,,,,,,,,,,,,,,,,,,,,,,,,,,,,,,,,,,,,,,,,,,,,,,,,,,,,,,,,,,,,,,,,,,,,,,,,,,,,,,,,,,,,,,,,,,,,,,,,,,,,,,,,,,,,,,,,,,,,,,,,,,,,,,,,,,,,,,,,,,,,,,,,,,,,,,,,,,,,,,,,,,,,,,,,,,,,,,,,,,,,,,,,,,,,,,,,,,,,,,,,,,,,,,,,,,,,,,,,,,,,,,,,,,,,,,,,,,,,,,,,,,,,,,,,,,,,,,,,,,,,,,,,,,,,,,,,,,,,,,,,,,,,,,,,,,,,,,,,,,,,,,,,,,,,,,,,,,,,,,,,,,,,,,,,,,,,,,,,,,,,,,,,,,,,,,,,,,,,,,,,,,,,,,,,,,,,,,,,,,,,,,,,,,,,,,,,,,,,,,,,,,,,,,,,,,,,,,,,,,,,,,,,,,,,,,,,,,,,,,,,,,,,,,,,,,,,,,,,,,,,,,,,,,,,,,,,,,,,,,,,,,,,,,,,,,,,,,,,,,,,,,,,,,,,,,,,,,,,,,,,,,,,,,,,,,,,,,,,,,,,,,,,,,,,,,,,,,,,,,,,,,,,,,,,,,,,,,,,,,,,,,,,,,,,,,,,,,,,,,,,,,,,,,,,,,,,,,,,,,,,,,,,,,,,,,,,,,,,,,,,,,,,,,,,,,,,,,,,,,,,,,,,,,,,,,,,,,,,,,,,,,,,,,,,,,,,,,,,,,,,,,,,,,,,,,,,,,,,,,,,,,,,,,,,,,,,,,,,,,,,,,,,,,,,,,,,,,,,,,,,,,,,,,,,,,,,,,,,,,,,,,,,,,,,,,,,,,,,,,,,,,,,,,,,,,,,,,,,,,,,,,,,,,,,,,,,,,,,,,,,,,,,,,,,,,,,,,,,,,,,,,,,,,,,,,,,,,,,,,,,,,,,,,,,,,,,,,,,,,,,,,,,,,,,,,,,,,,,,,,,,,,,,,,,,,,,,,,,,,,,,,,,,,,,,,,,,,,,,,,,,,,,,,,,,,,,,,,,,,,,,,,,,,,,,,,,,,,,,,,,,,,,,,,,,,,,,,,,,,,,,,,,,,,,,,,,,,,,,,,,,,,,,,,,,,,,,,,,,,,,,,,,,,,,,,,,,,,,,,,,,,,,,,,,,,,,,,,,,,,,,,,,,,,,,,,,,,,,,,,,,,,,,,,,,,,,,,,,,,,,,,,,,,,,,,,,,,,,,,,,,,,,,,,,,,,,,,,,,,,,,,,,,,,,,,,,,,,,,,,,,,,,,,,,,,,,,,,,,,,,,,,,,,,,,,,,,,,,,,,,,,,,,,,,,,,,,,,,,,,,,,,,,,,,,,,,,,,,,,,,,,,,,,,,,,,,,,,,,,,,,,,,,,,,,,,,,,,,,,,,,,,,,,,,,,,,,,,,,,,,,,,,,,,,,,,,,,,,,,,,,,,,,,,,,,,,,,,,,,,,,,,,,,,,,,,,,,,,,,,,,,,,,,,,,,,,,,,,,,,,,,,,,,,,,,,,,,,,,,,,,,,,,,,,,,,,,,,,,,,,,,,,,,,,,,,,,,,,,,,,,,,,,,,,,,,,,,,,,,,,,,,,,,,,,,,,,,,,,,,,,,,,,,,,,,,,,,,,,,,,,,,,,,,,,,,,,,,,,,,,,,,,,,,,,,,,,,,,,,,,,,,,,,,,,,,,,,,,,,,,,,,,,,,,,,,,,,,,,,,,,,,,,,,,,,,,,,,,,,,,,,,,,,,,,,,,,,,,,,,,,,,,,,,,,,,,,,,,,,,,,,,,,,,,,,,,,,,,,,,,,,,,,,,,,,,,,,,,,,,,,,,,,,,,,,,,,,,,,,,,,,,,,,,,,,,,,,,,,,,,,,,,,,,,,,,,,,,,,,,,,,,,,,,,,,,,,,,,,,,,,,,,,,,,,,,,,,,,,,,,,,,,,,,,,,,,,,,,,,,,,,,,,,,,,,,,,,,,,,,,,,,,,,,,,,,,,,,,,,,,,,,,,,,,,,,,,,,,,,,,,,,,,,,,,,,,,,,,,,,,,,,,,,,,,,,,,,,,,,,,,,,,,,,,,,,,,,,,,,,,,,,,,,,,,,,,,,,,,,,,,,,,,,,,,,,,,,,,,,,,,,,,,,,,,,,,,,,,,,,,,,,,,,,,,,,,,,,,,,,,,,,,,,,,,,,,,,,,,,,,,,,,,,,,,,,,,,,,,,,,,,,,,,,,,,,,,,,,,,,,,,,,,,,,,,,,,,,,,,,,,,,,,,,,,,,,,,,,,,,,,,,,,,,,,,,,,,,,,,,,,,,,,,,,,,,,,,,,,,,,,,,,,,,,,,,,,,,,,,,,,,,,,,,,,,,,,,,,,,,,,,,,,,,,,,,,,,,,,,,,,,,,,,,,,,,,,,,,,,,,,,,,,,,,,,,,,,,,,,,,,,,,,,,,,,,,,,,,,,,,,,,,,,,,,,,,,,,,,,,,,,,,,,,,,,,,,,,,,,,,,,,,,,,,,,,,,,,,,,,,,,,,,,,,,,,,,,,,,,,,,,,,,,,,,,,,,,,,,,,,,,,,,,,,,,,,,,,,,,,,,,,,,,,,,,,,,,,,,,,,,,,,,,,,,,,,,,,,,,,,,,,,,,,,,,,,,,,,,,,,,,,,,,,,,,,,,,,,,,,,,,,,,,,,,,,,,,,,,,,,,,,,,,,,,,,,,,,,,,,,,,,,,,,,,,,,,,,,,,,,,,,,,,,,,,,,,,,,,,,,,,,,,,,,,,,,,,,,,,,,,,,,,,,,,,,,,,,,,,,,,,,,,,,,,,,,,,,,,,,,,,,,,,,,,,,,,,,,,,,,,,,,,,,,,,,,,,,,,,,,,,,,,,,,,,,,,,,,,,,,,,,,,,,,,,,,,,,,,,,,,,,,,,,,,,,,,,,,,,,,,,,,,,,,,,,,,,,,,,,,,,,,,,,,,,,,,,,,,,,,,,,,,,,,,,,,,,,,,,,,,,,,,,,,,,,,,,,,,,,,,,,,,,,,,,,,,,,,,,,,,,,,,,,,,,,,,,,,,,,,,,,,,,,,,,,,,,,,,,,,,,,,,,,,,,,,,,,,,,,,,,,,,,,,,,,,,,,,,,,,,,,,,,,,,,,,,,,,,,,,,,,,,,,,,,,,,,,,,,,,,,,,,,,,,,,,,,,,,,,,,,,,,,,,,,,,,,,,,,,,,,,,,,,,,,,,,,,,,,,,,,,,,,,,,,,,,,,,,,,,,,,,,,,,,,,,,,,,,,,,,,,,,,,,,,,,,,,,,,,,,,,,,,,,,,,,,,,,,,,,,,,,,,,,,,,,,,,,,,,,,,,,,,,,,,,,,,,,,,,,,,,,,,,,,,,,,,,,,,,,,,,,,,,,,,,,,,,,,,,,,,,,,,,,,,,,,,,,,,,,,,,,,,,,,,,,,,,,,,,,,,,,,,,,,,,,,,,,,,,,,,,,,,,,,,,,,,,,,,,,,,,,,,,,,,,,,,,,,,,,,,,,,,,,,,,,,,,,,,,,,,,,,,,,,,,,,,,,,,,,,,,,,,,,,,,,,,,,,,,,,,,,,,,,,,,,,,,,,,,,,,,,,,,,,,,,,,,,,,,,,,,,,,,,,,,,,,,,,,,,,,,,,,,,,,,,,,,,,,,,,,,,,,,,,,,,,,,,,,,,,,,,,,,,,,,,,,,,,,,,,,,,,,,,,,,,,,,,,,,,,,,,,,,,,,,,,,,,,,,,,,,,,,,,,,,,,,,,,,,,,,,,,,,,,,,,,,,,,,,,,,,,,,,,,,,,,,,,,,,,,,,,,,,,,,,,,,,,,,,,,,,,,,,,,,,,,,,,,,,,,,,,,,,,,,,,,,,,,,,,,,,,,,,,,,,,,,,,,,,,,,,,,,,,,,,,,,,,,,,,,,,,,,,,,,,,,,,,,,,,,,,,,,,,,,,,,,,,,,,,,,,,,,,,,,,,,,,,,,,,,,,,,,,,,,,,,,,,,,,,,,,,,,,,,,,,,,,,,,,,,,,,,,,,,,,,,,,,,,,,,,,,,,,,,,,,,,,,,,,,,,,,,,,,,,,,,,,,,,,,,,,,,,,,,,,,,,,,,,,,,,,,,,,,,,,,,,,,,,,,,,,,,,,,,,,,,,,,,,,,,,,,,,,,,,,,,,,,,,,,,,,,,,,,,,,,,,,,,,,,,,,,,,,,,,,,,,,,,,,,,,,,,,,,,,,,,,,,,,,,,,,,,,,,,,,,,,,,,,,,,,,,,,,,,,,,,,,,,,,,,,,,,,,,,,,,,,,,,,,,,,,,,,,,,,,,,,,,,,,,,,,,,,,,,,,,,,,,,,,,,,,,,,,,,,,,,,,,,,,,,,,,,,,,,,,,,,,,,,,,,,,,,,,,,,,,,,,,,,,,,,,,,,,,,,,,,,,,,,,,,,,,,,,,,,,,,,,,,,,,,,,,,,,,,,,,,,,,,,,,,,,,,,,,,,,,,,,,,,,,,,,,,,,,,,,,,,,,,,,,,,,,,,,,,,,,,,,,,,,,,,,,,,,,,,,,,,,,,,,,,,,,,,,,,,,,,,,,,,,,,,,,,,,,,,,,,,,,,,,,,,,,,,,,,,,,,,,,,,,,,,,,,,,,,,,,,,,,,,,,,,,,,,,,,,,,,,,,,,,,,,,,,,,,,,,,,,,,,,,,,,,,,,,,,,,,,,,,,,,,,,,,,,,,,,,,,,,,,,,,,,,,,,,,,,,,,,,,,,,,,,,,,,,,,,,,,,,,,,,,,,,,,,,,,,,,,,,,,,,,,,,,,,,,,,,,,,,,,,,,,,,,,,,,,,,,,,,,,,,,,,,,,,,,,,,,,,,,,,,,,,,,,,,,,,,,,,,,,,,,,,,,,,,,,,,,,,,,,,,,,,,,,,,,,,,,,,,,,,,,,,,,,,,,,,,,,,,,,,,,,,,,,,,,,,,,,,,,,,,,,,,,,,,,,,,,,,,,,,,,,,,,,,,,,,,,,,,,,,,,,,,,,,,,,,,,,,,,,,,,,,,,,,,,,,,,,,,,,,,,,,,,,,,,,,,,,,,,,,,,,,,,,,,,,,,,,,,,,,,,,,,,,,,,,,,,,,,,,,,,,,,,,,,,,,,,,,,,,,,,,,,,,,,,,,,,,,,,,,,,,,,,,,,,,,,,,,,,,,,,,,,,,,,,,,,,,,,,,,,,,,,,,,,,,,,,,,,,,,,,,,,,,,,,,,,,,,,,,,,,,,,,,,,,,,,,,,,,,,,,,,,,,,,,,,,,,,,,,,,,,,,,,,,,,,,,,,,,,,,,,,,,,,,,,,,,,,,,,,,,,,,,,,,,,,,,,,,,,,,,,,,,,,,,,,,,,,,,,,,,,,,,,,,,,,,,,,,,,,,,,,,,,,,,,,,,,,,,,,,,,,,,,,,,,,,,,,,,,,,,,,,,,,,,,,,,,,,,,,,,,,,,,,,,,,,,,,,,,,,,,,,,,,,,,,,,,,,,,,,,,,,,,,,,,,,,,,,,,,,,,,,,,,,,,,,,,,,,,,,,,,,,,,,,,,,,,,,,,,,,,,,,,,,,,,,,,,,,,,,,,,,,,,,,,,,,,,,,,,,,,,,,,,,,,,,,,,,,,,,,,,,,,,,,,,,,,,,,,,,,,,,,,,,,,,,,,,,,,,,,,,,,,,,,,,,,,,,,,,,,,,,,,,,,,,,,,,,,,,,,,,,,,,,,,,,,,,,,,,,,,,,,,,,,,,,,,,,,,,,,,,,,,,,,,,,,,,,,,,,,,,,,,,,,,,,,,,,,,,,,,,,,,,,,,,,,,,,,,,,,,,,,,,,,,,,,,,,,,,,,,,,,,,,,,,,,,,,,,,,,,,,,,,,,,,,,,,,,,,,,,,,,,,,,,,,,,,,,,,,,,,,,,,,,,,,,,,,,,,,,,,,,,,,,,,,,,,,,,,,,,,,,,,,,,,,,,,,,,,,,,,,,,,,,,,,,,,,,,,,,,,,,,,,,,,,,,,,,,,,,,,,,,,,,,,,,,,,,,,,,,,,,,,,,,,,,,,,,,,,,,,,,,,,,,,,,,,,,,,,,,,,,,,,,,,,,,,,,,,,,,,,,,,,,,,,,,,,,,,,,,,,,,,,,,,,,,,,,,,,,,,,,,,,,,,,,,,,,,,,,,,,,,,,,,,,,,,,,,,,,,,,,,,,,,,,,,,,,,,,,,,,,,,,,,,,,,,,,,,,,,,,,,,,,,,,,,,,,,,,,,,,,,,,,,,,,,,,,,,,,,,,,,,,,,,,,,,,,,,,,,,,,,,,,,,,,,,,,,,,,,,,,,,,,,,,,,,,,,,,,,,,,,,,,,,,,,,,,,,,,,,,,,,,,,,,,,,,,,,,,,,,,,,,,,,,,,,,,,,,,,,,,,,,,,,,,,,,,,,,,,,,,,,,,,,,,,,,,,,,,,,,,,,,,,,,,,,,,,,,,,,,,,,,,,,,,,,,,,,,,,,,,,,,,,,,,,,,,,,,,,,,,,,,,,,,,,,,,,,,,,,,,,,,,,,,,,,,,,,,,,,,,,,,,,,,,,,,,,,,,,,,,,,,,,,,,,,,,,,,,,,,,,,,,,,,,,,,,,,,,,,,,,,,,,,,,,,,,,,,,,,,,,,,,,,,,,,,,,,,,,,,,,,,,,,,,,,,,,,,,,,,,,,,,,,,,,,,,,,,,,,,,,,,,,,,,,,,,,,,,,,,,,,,,,,,,,,,,,,,,,,,,,,,,,,,,,,,,,,,,,,,,,,,,,,,,,,,,,,,,,,,,,,,,,,,,,,,,,,,,,,,,,,,,,,,,,,,,,,,,,,,,,,,,,,,,,,,,,,,,,,,,,,,,,,,,,,,,,,,,,,,,,,,,,,,,,,,,,,,,,,,,,,,,,,,,,,,,,,,,,,,,,,,,,,,,,,,,,,,,,,,,,,,,,,,,,,,,,,,,,,,,,,,,,,,,,,,,,,,,,,,,,,,,,,,,,,,,,,,,,,,,,,,,,,,,,,,,,,,,,,,,,,,,,,,,,,,,,,,,,,,,,,,,,,,,,,,,,,,,,,,,,,,,,,,,,,,,,,,,,,,,,,,,,,,,,,,,,,,,,,,,,,,,,,,,,,,,,,,,,,,,,,,,,,,,,,,,,,,,,,,,,,,,,,,,,,,,,,,,,,,,,,,,,,,,,,,,,,,,,,,,,,,,,,,,,,,,,,,,,,,,,,,,,,,,,,,,,,,,,,,,,,,,,,,,,,,,,,,,,,,,,,,,,,,,,,,,,,,,,,,,,,,,,,,,,,,,,,,,,,,,,,,,,,,,,,,,,,,,,,,,,,,,,,,,,,,,,,,,,,,,,,,,,,,,,,,,,,,,,,,,,,,,,,,,,,,,,,,,,,,,,,,,,,,,,,,,,,,,,,,,,,,,,,,,,,,,,,,,,,,,,,,,,,,,,,,,,,,,,,,,,,,,,,,,,,,,,,,,,,,,,,,,,,,,,,,,,,,,,,,,,,,,,,,,,,,,,,,,,,,,,,,,,,,,,,,,,,,,,,,,,,,,,,,,,,,,,,,,,,,,,,,,,,,,,,,,,,,,,,,,,,,,,,,,,,,,,,,,,,,,,,,,,,,,,,,,,,,,,,,,,,,,,,,,,,,,,,,,,,,,,,,,,,,,,,,,,,,,,,,,,,,,,,,,,,,,,,,,,,,,,,,,,,,,,,,,,,,,,,,,,,,,,,,,,,,,,,,,,,,,,,,,,,,,,,,,,,,,,,,,,,,,,,,,,,,,,,,,,,,,,,,,,,,,,,,,,,,,,,,,,,,,,,,,,,,,,,,,,,,,,,,,,,,,,,,,,,,,,,,,,,,,,,,,,,,,,,,,,,,,,,,,,,,,,,,,,,,,,,,,,,,,,,,,,,,,,,,,,,,,,,,,,,,,,,,,,,,,,,,,,,,,,,,,,,,,,,,,,,,,,,,,,,,,,,,,,,,,,,,,,,,,,,,,,,,,,,,,,,,,,,,,,,,,,,,,,,,,,,,,,,,,,,,,,,,,,,,,,,,,,,,,,,,,,,,,,,,,,,,,,,,,,,,,,,,,,,,,,,,,,,,,,,,,,,,,,,,,,,,,,,,,,,,,,,,,,,,,,,,,,,,,,,,,,,,,,,,,,,,,,,,,,,,,,,,,,,,,,,,,,,,,,,,,,,,,,,,,,,,,,,,,,,,,,,,,,,,,,,,,,,,,,,,,,,,,,,,,,,,,,,,,,,,,,,,,,,,,,,,,,,,,,,,,,,,,,,,,,,,,,,,,,,,,,,,,,,,,,,,,,,,,,,,,,,,,,,,,,,,,,,,,,,,,,,,,,,,,,,,,,,,,,,,,,,,,,,,,,,,,,,,,,,,,,,,,,,,,,,,,,,,,,,,,,,,,,,,,,,,,,,,,,,,,,,,,,,,,,,,,,,,,,,,,,,,,,,,,,,,,,,,,,,,,,,,,,,,,,,,,,,,,,,,,,,,,,,,,,,,,,,,,,,,,,,,,,,,,,,,,,,,,,,,,,,,,,,,,,,,,,,,,,,,,,,,,,,,,,,,,,,,,,,,,,,,,,,,,,,,,,,,,,,,,,,,,,,,,,,,,,,,,,,,,,,,,,,,,,,,,,,,,,,,,,,,,,,,,,,,,,,,,,,,,,,,,,,,,,,,,,,,,,,,,,,,,,,,,,,,,,,,,,,,,,,,,,,,,,,,,,,,,,,,,,,,,,,,,,,,,,,,,,,,,,,,,,,,,,,,,,,,,,,,,,,,,,,,,,,,,,,,,,,,,,,,,,,,,,,,,,,,,,,,,,,,,,,,,,,,,,,,,,,,,,,,,,,,,,,,,,,,,,,,,,,,,,,,,,,,,,,,,,,,,,,,,,,,,,,,,,,,,,,,,,,,,,,,,,,,,,,,,,,,,,,,,,,,,,,,,,,,,,,,,,,,,,,,,,,,,,,,,,,,,,,,,,,,,,,,,,,,,,,,,,,,,,,,,,,,,,,,,,,,,,,,,,,,,,,,,,,,,,,,,,,,,,,,,,,,,,,,,,,,,,,,,,,,,,,,,,,,,,,,,,,,,,,,,,,,,,,,,,,,,,,,,,,,,,,,,,,,,,,,,,,,,,,,,,,,,,,,,,,,,,,,,,,,,,,,,,,,,,,,,,,,,,,,,,,,,,,,,,,,,,,,,,,,,,,,,,,,,,,,,,,,,,,,,,,,,,,,,,,,,,,,,,,,,,,,,,,,,,,,,,,,,,,,,,,,,,,,,,,,,,,,,,,,,,,,,,,,,,,,,,,,,,,,,,,,,,,,,,,,,,,,,,,,,,,,,,,,,,,,,,,,,,,,,,,,,,,,,,,,,,,,,,,,,,,,,,,,,,,,,,,,,,,,,,,,,,,,,,,,,,,,,,,,,,,,,,,,,,,,,,,,,,,,,,,,,,,,,,,,,,,,,,,,,,,,,,,,,,,,,,,,,,,,,,,,,,,,,,,,,,,,,,,,,,,,,,,,,,,,,,,,,,,,,,,,,,,,,,,,,,,,,,,,,,,,,,,,,,,,,,,,,,,,,,,,,,,,,,,,,,,,,,,,,,,,,,,,,,,,,,,,,,,,,,,,,,,,,,,,,,,,,,,,,,,,,,,,,,,,,,,,,,,,,,,,,,,,,,,,,,,,,,,,,,,,,,,,,,,,,,,,,,,,,,,,,,,,,,,,,,,,,,,,,,,,,,,,,,,,,,,,,,,,,,,,,,,,,,,,,,,,,,,,,,,,,,,,,,,,,,,,,,,,,,,,,,,,,,,,,,,,,,,,,,,,,,,,,,,,,,,,,,,,,,,,,,,,,,,,,,,,,,,,,,,,,,,,,,,,,,,,,,,,,,,,,,,,,,,,,,,,,,,,,,,,,,,,,,,,,,,,,,,,,,,,,,,,,,,,,,,,,,,,,,,,,,,,,,,,,,,,,,,,,,,,,,,,,,,,,,,,,,,,,,,,,,,,,,,,,,,,,,,,,,,,,,,,,,,,,,,,,,,,,,,,,,,,,,,,,,,,,,,,,,,,,,,,,,,,,,,,,,,,,,,,,,,,,,,,,,,,,,,,,,,,,,,,,,,,,,,,,,,,,,,,,,,,,,,,,,,,,,,,,,,,,,,,,,,,,,,,,,,,,,,,,,,,,,,,,,,,,,,,,,,,,,,,,,,,,,,,,,,,,,,,,,,,,,,,,,,,,,,,,,,,,,,,,,,,,,,,,,,,,,,,,,,,,,,,,,,,,,,,,,,,,,,,,,,,,,,,,,,,,,,,,,,,,,,,,,,,,,,,,,,,,,,,,,,,,,,,,,,,,,,,,,,,,,,,,,,,,,,,,,,,,,,,,,,,,,,,,,,,,,,,,,,,,,,,,,,,,,,,,,,,,,,,,,,,,,,,,,,,,,,,,,,,,,,,,,,,,,,,,,,,,,,,,,,,,,,,,,,,,,,,,,,,,,,,,,,,,,,,,,,,,,,,,,,,,,,,,,,,,,,,,,,,,,,,,,,,,,,,,,,,,,,,,,,,,,,,,,,,,,,,,,,,,,,,,,,,,,,,,,,,,,,,,,,,,,,,,,,,,,,,,,,,,,,,,,,,,,,,,,,,,,,,,,,,,,,,,,,,,,,,,,,,,,,,,,,,,,,,,,,,,,,,,,,,,,,,,,,,,,,,,,,,,,,,,,,,,,,,,,,,,,,,,,,,,,,,,,,,,,,,,,,,,,,,,,,,,,,,,,,,,,,,,,,,,,,,,,,,,,,,,,,,,,,,,,,,,,,,,,,,,,,,,,,,,,,,,,,,,,,,,,,,,,,,,,,,,,,,,,,,,,,,,,,,,,,,,,,,,,,,,,,,,,,,,,,,,,,,,,,,,,,,,,,,,,,,,,,,,,,,,,,,,,,,,,,,,,,,,,,,,,,,,,,,,,,,,,,,,,,,,,,,,,,,,,,,,,,,,,,,,,,,,,,,,,,,,,,,,,,,,,,,,,,,,,,,,,,,,,,,,,,,,,,,,,,,,,,,,,,,,,,,,,,,,,,,,,,,,,,,,,,,,,,,,,,,,,,,,,,,,,,,,,,,,,,,,,,,,,,,,,,,,,,,,,,,,,,,,,,,,,,,,,,,,,,,,,,,,,,,,,,,,,,,,,,,,,,,,,,,,,,,,,,,,,,,,,,,,,,,,,,,,,,,,,,,,,,,,,,,,,,,,,,,,,,,,,,,,,,,,,,,,,,,,,,,,,,,,,,,,,,,,,,,,,,,,,,,,,,,,,,,,,,,,,,,,,,,,,,,,,,,,,,,,,,,,,,,,,,,,,,,,,,,,,,,,,,,,,,,,,,,,,,,,,,,,,,,,,,,,,,,,,,,,,,,,,,,,,,,,,,,,,,,,,,,,,,,,,,,,,,,,,,,,,,,,,,,,,,,,,,,,,,,,,,,,,,,,,,,,,,,,,,,,,,,,,,,,,,,,,,,,,,,,,,,,,,,,,,,,,,,,,,,,,,,,,,,,,,,,,,,,,,,,,,,,,,,,,,,,,,,,,,,,,,,,,,,,,,,,,,,,,,,,,,,,,,,,,,,,,,,,,,,,,,,,,,,,,,,,,,,,,,,,,,,,,,,,,,,,,,,,,,,,,,,,,,,,,,,,,,,,,,,,,,,,,,,,,,,,,,,,,,,,,,,,,,,,,,,,,,,,,,,,,,,,,,,,,,,,,,,,,,,,,,,,,,,,,,,,,,,,,,,,,,,,,,,,,,,,,,,,,,,,,,,,,,,,,,,,,,,,,,,,,,,,,,,,,,,,,,,,,,,,,,,,,,,,,,,,,,,,,,,,,,,,,,,,,,,,,,,,,,,,,,,,,,,,,,,,,,,,,,,,,,,,,,,,,,,,,,,,,,,,,,,,,,,,,,,,,,,,,,,,,,,,,,,,,,,,,,,,,,,,,,,,,,,,,,,,,,,,,,,,,,,,,,,,,,,,,,,,,,,,,,,,,,,,,,,,,,,,,,,,,,,,,,,,,,,,,,,,,,,,,,,,,,,,,,,,,,,,,,,,,,,,,,,,,,,,,,,,,,,,,,,,,,,,,,,,,,,,,,,,,,,,,,,,,,,,,,,,,,,,,,,,,,,,,,,,,,,,,,,,,,,,,,,,,,,,,,,,,,,,,,,,,,,,,,,,,,,,,,,,,,,,,,,,,,,,,,,,,,,,,,,,,,,,,,,,,,,,,,,,,,,,,,,,,,,,,,,,,,,,,,,,,,,,,,,,,,,,,,,,,,,,,,,,,,,,,,,,,,,,,,,,,,,,,,,,,,,,,,,,,,,,,,,,,,,,,,,,,,,,,,,,,,,,,,,,,,,,,,,,,,,,,,,,,,,,,,,,,,,,,,,,,,,,,,,,,,,,,,,,,,,,,,,,,,,,,,,,,,,,,,,,,,,,,,,,,,,,,,,,,,,,,,,,,,,,,,,,,,,,,,,,,,,,,,,,,,,,,,,,,,,,,,,,,,,,,,,,,,,,,,,,,,,,,,,,,,,,,,,,,,,,,,,,,,,,,,,,,,,,,,,,,,,,,,,,,,,,,,,,,,,,,,,,,,,,,,,,,,,,,,,,,,,,,,,,,,,,,,,,,,,,,,,,,,,,,,,,,,,,,,,,,,,,,,,,,,,,,,,,,,,,,,,,,,,,,,,,,,,,,,,,,,,,,,,,,,,,,,,,,,,,,,,,,,,,,,,,,,,,,,,,,,,,,,,,,,,,,,,,,,,,,,,,,,,,,,,,,,,,,,,,,,,,,,,,,,,,,,,,,,,,,,,,,,,,,,,,,,,,,,,,,,,,,,,,,,,,,,,,,,,,,,,,,,,,,,,,,,,,,,,,,,,,,,,,,,,,,,,,,,,,,,,,,,,,,,,,,,,,,,,,,,,,,,,,,,,,,,,,,,,,,,,,,,,,,,,,,,,,,,,,,,,,,,,,,,,,,,,,,,,,,,,,,,,,,,,,,,,,,,,,,,,,,,,,,,,,,,,,,,,,,,,,,,,,,,,,,,,,,,,,,,,,,,,,,,,,,,,,,,,,,,,,,,,,,,,,,,,,,,,,,,,,,,,,,,,,,,,,,,,,,,,,,,,,,,,,,,,,,,,,,,,,,,,,,,,,,,,,,,,,,,,,,,,,,,,,,,,,,,,,,,,,,,,,,,,,,,,,,,,,,,,,,,,,,,,,,,,,,,,,,,,,,,,,,,,,,,,,,,,,,,,,,,,,,,,,,,,,,,,,,,,,,,,,,,,,,,,,,,,,,,,,,,,,,,,,,,,,,,,,,,,,,,,,,,,,,,,,,,,,,,,,,,,,,,,,,,,,,,,,,,,,,,,,,,,,,,,,,,,,,,,,,,,,,,,,,,,,,,,,,,,,,,,,,,,,,,,,,,,,,,,,,,,,,,,,,,,,,,,,,,,,,,,,,,,,,,,,,,,,,,,,,,,,,,,,,,,,,,,,,,,,,,,,,,,,,,,,,,,,,,,,,,,,,,,,,,,,,,,,,,,,,,,,,,,,,,,,,,,,,,,,,,,,,,,,,,,,,,,,,,,,,,,,,,,,,,,,,,,,,,,,,,,,,,,,,,,,,,,,,,,,,,,,,,,,,,,,,,,,,,,,,,,,,,,,,,,,,,,,,,,,,,,,,,,,,,,,,,,,,,,,,,,,,,,,,,,,,,,,,,,,,,,,,,,,,,,,,,,,,,,,,,,,,,,,,,,,,,,,,,,,,,,,,,,,,,,,,,,,,,,,,,,,,,,,,,,,,,,,,,,,,,,,,,,,,,,,,,,,,,,,,,,,,,,,,,,,,,,,,,,,,,,,,,,,,,,,,,,,,,,,,,,,,,,,,,,,,,,,,,,,,,,,,,,,,,,,,,,,,,,,,,,,,,,,,,,,,,,,,,,,,,,,,,,,,,,,,,,,,,,,,,,,,,,,,,,,,,,,,,,,,,,,,,,,,,,,,,,,,,,,,,,,,,,,,,,,,,,,,,,,,,,,,,,,,,,,,,,,,,,,,,,,,,,,,,,,,,,,,,,,,,,,,,,,,,,,,,,,,,,,,,,,,,,,,,,,,,,,,,,,,,,,,,,,,,,,,,,,,,,,,,,,,,,,,,,,,,,,,,,,,,,,,,,,,,,,,,,,,,,,,,,,,,,,,,,,,,,,,,,,,,,,,,,,,,,,,,,,,,,,,,,,,,,,,,,,,,,,,,,,,,,,,,,,,,,,,,,,,,,,,,,,,,,,,,,,,,,,,,,,,,,,,,,,,,,,,,,,,,,,,,,,,,,,,,,,,,,,,,,,,,,,,,,,,,,,,,,,,,,,,,,,,,,,,,,,,,,,,,,,,,,,,,,,,,,,,,,,,,,,,,,,,,,,,,,,,,,,,,,,,,,,,,,,,,,,,,,,,,,,,,,,,,,,,,,,,,,,,,,,,,,,,,,,,,,,,,,,,,,,,,,,,,,,,,,,,,,,,,,,,,,,,,,,,,,,,,,,,,,,,,,,,,,,,,,,,,,,,,,,,,,,,,,,,,,,,,,,,,,,,,,,,,,,,,,,,,,,,,,,,,,,,,,,,,,,,,,,,,,,,,,,,,,,,,,,,,,,,,,,,,,,,,,,,,,,,,,,,,,,,,,,,,,,,,,,,,,,,,,,,,,,,,,,,,,,,,,,,,,,,,,,,,,,,,,,,,,,,,,,,,,,,,,,,,,,,,,,,,,,,,,,,,,,,,,,,,,,,,,,,,,,,,,,,,,,,,,,,,,,,,,,,,,,,,,,,,,,,,,,,,,,,,,,,,,,,,,,,,,,,,,,,,,,,,,,,,,,,,,,,,,,,,,,,,,,,,,,,,,,,,,,,,,,,,,,,,,,,,,,,,,,,,,,,,,,,,,,,,,,,,,,,,,,,,,,,,,,,,,,,,,,,,,,,,,,,,,,,,,,,,,,,,,,,,,,,,,,,,,,,,,,,,,,,,,,,,,,,,,,,,,,,,,,,,,,,,,,,,,,,,,,,,,,,,,,,,,,,,,,,,,,,,,,,,,,,,,,,,,,,,,,,,,,,,,,,,,,,,,,,,,,,,,,,,,,,,,,,,,,,,,,,,,,,,,,,,,,,,,,,,,,,,,,,,,,,,,,,,,,,,,,,,,,,,,,,,,,,,,,,,,,,,,,,,,,,,,,,,,,,,,,,,,,,,,,,,,,,,,,,,,,,,,,,,,,,,,,,,,,,,,,,,,,,,,,,,,,,,,,,,,,,,,,,,,,,,,,,,,,,,,,,,,,,,,,,,,,,,,,,,,,,,,,,,,,,,,,,,,,,,,,,,,,,,,,,,,,,,,,,,,,,,,,,,,,,,,,,,,,,,,,,,,,,,,,,,,,,,,,,,,,,,,,,,,,,,,,,,,,,,,,,,,,,,,,,,,,,,,,,,,,,,,,,,,,,,,,,,,,,,,,,,,,,,,,,,,,,,,,,,,,,,,,,,,,,,,,,,,,,,,,,,,,,,,,,,,,,,,,,,,,,,,,,,,,,,,,,,,,,,,,,,,,,,,,,,,,,,,,,,,,,,,,,,,,,,,,,,,,,,,,,,,,,,,,,,,,,,,,,,,,,,,,,,,,,,,,,,,,,,,,,,,,,,,,,,,,,,,,,,,,,,,,,,,,,,,,,,,,,,,,,,,,,,,,,,,,,,,,,,,,,,,,,,,,,,,,,,,,,,,,,,,,,,,,,,,,,,,,,,,,,,,,,,,,,,,,,,,,,,,,,,,,,,,,,,,,,,,,,,,,,,,,,,,,,,,,,,,,,,,,,,,,,,,,,,,,,,,,,,,,,,,,,,,,,,,,,,,,,,,,,,,,,,,,,,,,,,,,,,,,,,,,,,,,,,,,,,,,,,,,,,,,,,,,,,,,,,,,,,,,,,,,,,,,,,,,,,,,,,,,,,,,,,,,,,,,,,,,,,,,,,,,,,,,,,,,,,,,,,,,,,,,,,,,,,,,,,,,,,,,,,,,,,,,,,,,,,,,,,,,,,,,,,,,,,,,,,,,,,,,,,,,,,,,,,,,,,,,,,,,,,,,,,,,,,,,,,,,,,,,,,,,,,,,,,,,,,,,,,,,,,,,,,,,,,,,,,,,,,,,,,,,,,,,,,,,,,,,,,,,,,,,,,,,,,,,,,,,,,,,,,,,,,,,,,,,,,,,,,,,,,,,,,,,,,,,,,,,,,,,,,,,,,,,,,,,,,,,,,,,,,,,,,,,,,,,,,,,,,,,,,,,,,,,,,,,,,,,,,,,,,,,,,,,,,,,,,,,,,,,,,,,,,,,,,,,,,,,,,,,,,,,,,,,,,,,,,,,,,,,,,,,,,,,,,,,,,,,,,,,,,,,,,,,,,,,,,,,,,,,,,,,,,,,,,,,,,,,,,,,,,,,,,,,,,,,,,,,,,,,,,,,,,,,,,,,,,,,,,,,,,,,,,,,,,,,,,,,,,,,,,,,,,,,,,,,,,,,,,,,,,,,,,,,,,,,,,,,,,,,,,,,,,,,,,,,,,,,,,,,,,,,,,,,,,,,,,,,,,,,,,,,,,,,,,,,,,,,,,,,,,,,,,,,,,,,,,,,,,,,,,,,,,,,,,,,,,,,,,,,,,,,,,,,,,,,,,,,,,,,,,,,,,,,,,,,,,,,,,,,,,,,,,,,,,,,,,,,,,,,,,,,,,,,,,,,,,,,,,,,,,,,,,,,,,,,,,,,,,,,,,,,,,,,,,,,,,,,,,,,,,,,,,,,,,,,,,,,,,,,,,,,,,,,,,,,,,,,,,,,,,,,,,,,,,,,,,,,,,,,,,,,,,,,,,,,,,,,,,,,,,,,,,,,,,,,,,,,,,,,,,,,,,,,,,,,,,,,,,,,,,,,,,,,,,,,,,,,,,,,,,,,,,,,,,,,,,,,,,,,,,,,,,,,,,,,,,,,,,,,,,,,,,,,,,,,,,,,,,,,,,,,,,,,,,,,,,,,,,,,,,,,,,,,,,,,,,,,,,,,,,,,,,,,,,,,,,,,,,,,,,,,,,,,,,,,,,,,,,,,,,,,,,,,,,,,,,,,,,,,,,,,,,,,,,,,,,,,,,,,,,,,,,,,,,,,,,,,,,,,,,,,,,,,,,,,,,,,,,,,,,,,,,,,,,,,,,,,,,,,,,,,,,,,,,,,,,,,,,,,,,,,,,,,,,,,,,,,,,,,,,,,,,,,,,,,,,,,,,,,,,,,,,,,,,,,,,,,,,,,,,,,,,,,,,,,,,,,,,,,,,,,,,,,,,,,,,,,,,,,,,,,,,,,,,,,,,,,,,,,,,,,,,,,,,,,,,,,,,,,,,,,,,,,,,,,,,,,,,,,,,,,,,,,,,,,,,,,,,,,,,,,,,,,,,,,,,,,,,,,,,,,,,,,,,,,,,,,,,,,,,,,,,,,,,,,,,,,,,,,,,,,,,,,,,,,,,,,,,,,,,,,,,,,,,,,,,,,,,,,,,,,,,,,,,,,,,,,,,,,,,,,,,,,,,,,,,,,,,,,,,,,,,,,,,,,,,,,,,,,,,,,,,,,,,,,,,,,,,,,,,,,,,,,,,,,,,,,,,,,,,,,,,,,,,,,,,,,,,,,,,,,,,,,,,,,,,,,,,,,,,,,,,,,,,,,,,,,,,,,,,,,,,,,,,,,,,,,,,,,,,,,,,,,,,,,,,,,,,,,,,,,,,,,,,,,,,,,,,,,,,,,,,,,,,,,,,,,,,,,,,,,,,,,,,,,,,,,,,,,,,,,,,,,,,,,,,,,,,,,,,,,,,,,,,,,,,,,,,,,,,,,,,,,,,,,,,,,,,,,,,,,,,,,,,,,,,,,,,,,,,,,,,,,,,,,,,,,,,,,,,,,,,,,,,,,,,,,,,,,,,,,,,,,,,,,,,,,,,,,,,,,,,,,,,,,,,,,,,,,,,,,,,,,,,,,,,,,,,,,,,,,,,,,,,,,,,,,,,,,,,,,,,,,,,,,,,,,,,,,,,,,,,,,,,,,,,,,,,,,,,,,,,,,,,,,,,,,,,,,,,,,,,,,,,,,,,,,,,,,,,,,,,,,,,,,,,,,,,,,,,,,,,,,,,,,,,,,,,,,,,,,,,,,,,,,,,,,,,,,,,,,,,,,,,,,,,,,,,,,,,,,,,,,,,,,,,,,,,,,,,,,,,,,,,,,,,,,,,,,,,,,,,,,,,,,,,,,,,,,,,,,,,,,,,,,,,,,,,,,,,,,,,,,,,,,,,,,,,,,,,,,,,,,,,,,,,,,,,,,,,,,,,,,,,,,,,,,,,,,,,,,,,,,,,,,,,,,,,,,,,,,,,,,,,,,,,,,,,,,,,,,,,,,,,,,,,,,,,,,,,,,,,,,,,,,,,,,,,,,,,,,,,,,,,,,,,,,,,,,,,,,,,,,,,,,,,,,,,,,,,,,,,,,,,,,,,,,,,,,,,,,,,,,,,,,,,,,,,,,,,,,,,,,,,,,,,,,,,,,,,,,,,,,,,,,,,,,,,,,,,,,,,,,,,,,,,,,,,,,,,,,,,,,,,,,,,,,,,,,,,,,,,,,,,,,,,,,,,,,,,,,,,,,,,,,,,,,,,,,,,,,,,,,,,,,,,,,,,,,,,,,,,,,,,,,,,,,,,,,,,,,,,,,,,,,,,,,,,,,,,,,,,,,,,,,,,,,,,,,,,,,,,,,,,,,,,,,,,,,,,,,,,,,,,,,,,,,,,,,,,,,,,,,,,,,,,,,,,,,,,,,,,,,,,,,,,,,,,,,,,,,,,,,,,,,,,,,,,,,,,,,,,,,,,,,,,,,,,,,,,,,,,,,,,,,,,,,,,,,,,,,,,,,,,,,,,,,,,,,,,,,,,,,,,,,,,,,,,,,,,,,,,,,,,,,,,,,,,,,,,,,,,,,,,,,,,,,,,,,,,,,,,,,,,,,,,,,,,,,,,,,,,,,,,,,,,,,,,,,,,,,,,,,,,,,,,,,,,,,,,,,,,,,,,,,,,,,,,,,,,,,,,,,,,,,,,,,,,,,,,,,,,,,,,,,,,,,,,,,,,,,,,,,,,,,,,,,,,,,,,,,,,,,,,,,,,,,,,,,,,,,,,,,,,,,,,,,,,,,,,,,,,,,,,,,,,,,,,,,,,,,,,,,,,,,,,,,,,,,,,,,,,,,,,,,,,,,,,,,,,,,,,,,,,,,,,,,,,,,,,,,,,,,,,,,,,,,,,,,,,,,,,,,,,,,,,,,,,,,,,,,,,,,,,,,,,,,,,,,,,,,,,,,,,,,,,,,,,,,,,,,,,,,,,,,,,,,,,,,,,,,,,,,,,,,,,,,,,,,,,,,,,,,,,,,,,,,,,,,,,,,,,,,,,,,,,,,,,,,,,,,,,,,,,,,,,,,,,,,,,,,,,,,,,,,,,,,,,,,,,,,,,,,,,,,,,,,,,,,,,,,,,,,,,,,,,,,,,,,,,,,,,,,,,,,,,,,,,,,,,,,,,,,,,,,,,,,,,,,,,,,,,,,,,,,,,,,,,,,,,,,,,,,,,,,,,,,,,,,,,,,,,,,,,,,,,,,,,,,,,,,,,,,,,,,,,,,,,,,,,,,,,,,,,,,,,,,,,,,,,,,,,,,,,,,,,,,,,,,,,,,,,,,,,,,,,,,,,,,,,,,,,,,,,,,,,,,,,,,,,,,,,,,,,,,,,,,,,,,,,,,,,,,,,,,,,,,,,,,,,,,,,,,,,,,,,,,,,,,,,,,,,,,,,,,,,,,,,,,,,,,,,,,,,,,,,,,,,,,,,,,,,,,,,,,,,,,,,,,,,,,,,,,,,,,,,,,,,,,,,,,,,,,,,,,,,,,,,,,,,,,,,,,,,,,,,,,,,,,,,,,,,,,,,,,,,,,,,,,,,,,,,,,,,,,,,,,,,,,,,,,,,,,,,,,,,,,,,,,,,,,,,,,,,,,,,,,,,,,,,,,,,,,,,,,,,,,,,,,,,,,,,,,,,,,,,,,,,,,,,,,,,,,,,,,,,,,,,,,,,,,,,,,,,,,,,,,,,,,,,,,,,,,,,,,,,,,,,,,,,,,,,,,,,,,,,,,,,,,,,,,,,,,,,,,,,,,,,,,,,,,,,,,,,,,,,,,,,,,,,,,,,,,,,,,,,,,,,,,,,,,,,,,,,,,,,,,,,,,,,,,,,,,,,,,,,,,,,,,,,,,,,,,,,,,,,,,,,,,,,,,,,,,,,,,,,,,,,,,,,,,,,,,,,,,,,,,,,,,,,,,,,,,,,,,,,,,,,,,,,,,,,,,,,,,,,,,,,,,,,,,,,,,,,,,,,,,,,,,,,,,,,,,,,,,,,,,,,,,,,,,,,,,,,,,,,,,,,,,,,,,,,,,,,,,,,,,,,,,,,,,,,,,,,,,,,,,,,,,,,,,,,,,,,,,,,,,,,,,,,,,,,,,,,,,,,,,,,,,,,,,,,,,,,,,,,,,,,,,,,,,,,,,,,,,,,,,,,,,,,,,,,,,,,,,,,,,,,,,,,,,,,,,,,,,,,,,,,,,,,,,,,,,,,,,,,,,,,,,,,,,,,,,,,,,,,,,,,,,,,,,,,,,,,,,,,,,,,,,,,,,,,,,,,,,,,,,,,,,,,,,,,,,,,,,,,,,,,,,,,,,,,,,,,,,,,,,,,,,,,,,,,,,,,,,,,,,,,,,,,,,,,,,,,,,,,,,,,,,,,,,,,,,,,,,,,,,,,,,,,,,,,,,,,,,,,,,,,,,,,,,,,,,,,,,,,,,,,,,,,,,,,,,,,,,,,,,,,,,,,,,,,,,,,,,,,,,,,,,,,,,,,,,,,,,,,,,,,,,,,,,,,,,,,,,,,,,,,,,,,,,,,,,,,,,,,,,,,,,,,,,,,,,,,,,,,,,,,,,,,,,,,,,,,,,,,,,,,,,,,,,,,,,,,,,,,,,,,,,,,,,,,,,,,,,,,,,,,,,,,,,,,,,,,,,,,,,,,,,,,,,,,,,,,,,,,,,,,,,,,,,,,,,,,,,,,,,,,,,,,,,,,,,,,,,,,,,,,,,,,,,,,,,,,,,,,,,,,,,,,,,,,,,,,,,,,,,,,,,,,,,,,,,,,,,,,,,,,,,,,,,,,,,,,,,,,,,,,,,,,,,,,,,,,,,,,,,,,,,,,,,,,,,,,,,,,,,,,,,,,,,,,,,,,,,,,,,,,,,,,,,,,,,,,,,,,,,,,,,,,,,,,,,,,,,,,,,,,,,,,,,,,,,,,,,,,,,,,,,,,,,,,,,,,,,,,,,,,,,,,,,,,,,,,,,,,,,,,,,,,,,,,,,,,,,,,,,,,,,,,,,,,,,,,,,,,,,,,,,,,,,,,,,,,,,,,,,,,,,,,,,,,,,,,,,,,,,,,,,,,,,,,,,,,,,,,,,,,,,,,,,,,,,,,,,,,,,,,,,,,,,,,,,,,,,,,,,,,,,,,,,,,,,,,,,,,,,,,,,,,,,,,,,,,,,,,,,,,,,,,,,,,,,,,,,,,,,,,,,,,,,,,,,,,,,,,,,,,,,,,,,,,,,,,,,,,,,,,,,,,,,,,,,,,,,,,,,,,,,,,,,,,,,,,,,,,,,,,,,,,,,,,,,,,,,,,,,,,,,,,,,,,,,,,,,,,,,,,,,,,,,,,,,,,,,,,,,,,,,,,,,,,,,,,,,,,,,,,,,,,,,,,,,,,,,,,,,,,,,,,,,,,,,,,,,,,,,,,,,,,,,,,,,,,,,,,,,,,,,,,,,,,,,,,,,,,,,,,,,,,,,,,,,,,,,,,,,,,,,,,,,,,,,,,,,,,,,,,,,,,,,,,,,,,,,,,,,,,,,,,,,,,,,,,,,,,,,,,,,,,,,,,,,,,,,,,,,,,,,,,,,,,,,,,,,,,,,,,,,,,,,,,,,,,,,,,,,,,,,,,,,,,,,,,,,,,,,,,,,,,,,,,,,,,,,,,,,,,,,,,,,,,,,,,,,,,,,,,,,,,,,,,,,,,,,,,,,,,,,,,,,,,,,,,,,,,,,,,,,,,,,,,,,,,,,,,,,,,,,,,,,,,,,,,,,,,,,,,,,,,,,,,,,,,,,,,,,,,,,,,,,,,,,,,,,,,,,,,,,,,,,,,,,,,,,,,,,,,,,,,,,,,,,,,,,,,,,,,,,,,,,,,,,,,,,,,,,,,,,,,,,,,,,,,,,,,,,,,,,,,,,,,,,,,,,,,,,,,,,,,,,,,,,,,,,,,,,,,,,,,,,,