xPos,corrAns,yPos,corrGoResp,yPosGoStim,xPosGoStim,pracTrials.thisRepN,pracTrials.thisTrialN,pracTrials.thisN,pracTrials.thisIndex,ReDoLoopPrac.thisRepN,ReDoLoopPrac.thisTrialN,ReDoLoopPrac.thisN,ReDoLoopPrac.thisIndex,ReDoLoopPrac.thisTrial,pracStopTrials.thisRepN,pracStopTrials.thisTrialN,pracStopTrials.thisN,pracStopTrials.thisIndex,Blocks.thisRepN,Blocks.thisTrialN,Blocks.thisN,Blocks.thisIndex,Blocks.thisTrial,trials.thisRepN,trials.thisTrialN,trials.thisN,trials.thisIndex,ReDoLoopMain.thisRepN,ReDoLoopMain.thisTrialN,ReDoLoopMain.thisN,ReDoLoopMain.thisIndex,ReDoLoopMain.thisTrial,ok1.keys,ok1.rt,StartTrialTimeStamp,resp.keys,resp.corr,resp.rt,key_resp_8.keys,learningStimOnset,learningFixOnset,EndTrialTimeStamp,beginningSSD,trialType,goStim,goResp.keys,goResp.corr,goResp.rt,key_resp_9.keys,goTrailCountOutput,goCumRTOutput,goRTCountOutput,stopTrialCountOutput,stopSuccessCountOutput,omissionCountOutput,commissionCountOutput,fixStopOnset,goStimOnset,stopSignalOnset,key_resp_3.keys,key_resp_3.rt,NewStimTimeStamp,EndNewStimTimeStamp,computedRewardOutput,key_resp_8.rt,expName,gender (m/f),age,frameRate,session,date,participant,
,,,,,,,,,,,,,,,,,,,,,,,,,,,,,,,,,space,0.670867919922,,,,,,,,,,,,,,,,,,,,,,,,,,,,,,,,LearningTask,,,59.9743190105,3,2015_May_29_1523,11,
200,s,-200,,,,0,0,0,2,0,0,0,0,None,,,,,,,,,,,,,,,,,,,,,46.5784809589,s,1,0.370953083038,None,0.513210058212,0.0060601234436,49.5775001049,,,,,,,,,,,,,,,,,,,,,,,,LearningTask,,,59.9743190105,3,2015_May_29_1523,11,
200,s,-200,,,,0,0,0,2,,,,,,,,,,,,,,,,,,,,,,,,,,,,,,,,,,,,,,,,,,,,,,,,,,,,,,,,,LearningTask,,,59.9743190105,3,2015_May_29_1523,11,
-200,q,200,,,,0,1,1,5,0,0,0,0,None,,,,,,,,,,,,,,,,,,,,,49.6063649654,q,1,0.317445993423,None,0.50460100174,0.0017249584198,52.5968129635,,,,,,,,,,,,,,,,,,,,,,,,LearningTask,,,59.9743190105,3,2015_May_29_1523,11,
-200,q,200,,,,0,1,1,5,,,,,,,,,,,,,,,,,,,,,,,,,,,,,,,,,,,,,,,,,,,,,,,,,,,,,,,,,LearningTask,,,59.9743190105,3,2015_May_29_1523,11,
200,w,200,,,,0,2,2,4,0,0,0,0,None,,,,,,,,,,,,,,,,,,,,,52.6407768726,w,1,0.250748872757,None,0.506123065948,0.00169110298157,55.6322438717,,,,,,,,,,,,,,,,,,,,,,,,LearningTask,,,59.9743190105,3,2015_May_29_1523,11,
200,w,200,,,,0,2,2,4,,,,,,,,,,,,,,,,,,,,,,,,,,,,,,,,,,,,,,,,,,,,,,,,,,,,,,,,,LearningTask,,,59.9743190105,3,2015_May_29_1523,11,
-200,q,200,,,,0,3,3,1,0,0,0,0,None,,,,,,,,,,,,,,,,,,,,,55.6804909706,q,1,0.333624839783,None,0.501878976822,0.00102591514587,58.6844739914,,,,,,,,,,,,,,,,,,,,,,,,LearningTask,,,59.9743190105,3,2015_May_29_1523,11,
-200,q,200,,,,0,3,3,1,,,,,,,,,,,,,,,,,,,,,,,,,,,,,,,,,,,,,,,,,,,,,,,,,,,,,,,,,LearningTask,,,59.9743190105,3,2015_May_29_1523,11,
-200,q,200,,,,0,4,4,9,0,0,0,0,None,,,,,,,,,,,,,,,,,,,,,58.7410559654,q,1,0.367480039597,None,0.51015996933,0.00169801712036,61.736905098,,,,,,,,,,,,,,,,,,,,,,,,LearningTask,,,59.9743190105,3,2015_May_29_1523,11,
-200,q,200,,,,0,4,4,9,,,,,,,,,,,,,,,,,,,,,,,,,,,,,,,,,,,,,,,,,,,,,,,,,,,,,,,,,LearningTask,,,59.9743190105,3,2015_May_29_1523,11,
200,w,200,,,,0,5,5,8,0,0,0,0,None,,,,,,,,,,,,,,,,,,,,,61.803812027,w,1,0.367228031158,None,0.516628980637,0.00165677070618,64.806139946,,,,,,,,,,,,,,,,,,,,,,,,LearningTask,,,59.9743190105,3,2015_May_29_1523,11,
200,w,200,,,,0,5,5,8,,,,,,,,,,,,,,,,,,,,,,,,,,,,,,,,,,,,,,,,,,,,,,,,,,,,,,,,,LearningTask,,,59.9743190105,3,2015_May_29_1523,11,
200,w,200,,,,0,6,6,0,0,0,0,0,None,,,,,,,,,,,,,,,,,,,,,64.8791489601,w,1,0.38418507576,None,0.510413885117,0.000946998596191,67.8753778934,,,,,,,,,,,,,,,,,,,,,,,,LearningTask,,,59.9743190105,3,2015_May_29_1523,11,
200,w,200,,,,0,6,6,0,,,,,,,,,,,,,,,,,,,,,,,,,,,,,,,,,,,,,,,,,,,,,,,,,,,,,,,,,LearningTask,,,59.9743190105,3,2015_May_29_1523,11,
-200,a,-200,,,,0,7,7,7,0,0,0,0,None,,,,,,,,,,,,,,,,,,,,,67.9579079151,a,1,0.400638103485,None,0.501326084137,0.00105500221252,70.9613699913,,,,,,,,,,,,,,,,,,,,,,,,LearningTask,,,59.9743190105,3,2015_May_29_1523,11,
-200,a,-200,,,,0,7,7,7,,,,,,,,,,,,,,,,,,,,,,,,,,,,,,,,,,,,,,,,,,,,,,,,,,,,,,,,,LearningTask,,,59.9743190105,3,2015_May_29_1523,11,
200,s,-200,,,,0,8,8,6,0,0,0,0,None,,,,,,,,,,,,,,,,,,,,,71.0514609814,s,1,0.36746096611,None,0.510101079941,0.000998973846436,74.0473330021,,,,,,,,,,,,,,,,,,,,,,,,LearningTask,,,59.9743190105,3,2015_May_29_1523,11,
200,s,-200,,,,0,8,8,6,,,,,,,,,,,,,,,,,,,,,,,,,,,,,,,,,,,,,,,,,,,,,,,,,,,,,,,,,LearningTask,,,59.9743190105,3,2015_May_29_1523,11,
-200,a,-200,,,,0,9,9,3,0,0,0,0,None,,,,,,,,,,,,,,,,,,,,,74.1457669735,a,1,0.451044082642,None,0.501565933228,0.00101900100708,77.149848938,,,,,,,,,,,,,,,,,,,,,,,,LearningTask,,,59.9743190105,3,2015_May_29_1523,11,
-200,a,-200,,,,0,9,9,3,,,,,,,,,,,,,,,,,,,,,,,,,,,,,,,,,,,,,,,,,,,,,,,,,,,,,,,,,LearningTask,,,59.9743190105,3,2015_May_29_1523,11,
,,,m,0,200,,,,,,,,,,0,0,0,1,,,,,,,,,,,,,,,,,78.3012509346,,,,,,,81.3046419621,0.25,stop,crosswhite.gif,z,0,0.467501163483,None,0,0,0,1,0,0,0,0.00149893760681,0.515705108643,0.765888929367,,,,,,,LearningTask,,,59.9743190105,3,2015_May_29_1523,11,
,,,m,0,200,,,,,,,,,,0,1,1,1,,,,,,,,,,,,,,,,,81.3052840233,,,,,,,84.3060679436,-1,go,triangleorange.gif,z,0,0.53422498703,None,1,0,0,1,0,0,1,0.00132203102112,0.514037132263,,,,,,,,LearningTask,,,59.9743190105,3,2015_May_29_1523,11,
,,,z,0,-200,,,,,,,,,,1,0,2,0,,,,,,,,,,,,,,,,,84.3066840172,,,,,,,87.3088490963,-1,go,diamondgray.gif,z,1,0.317708015442,None,2,0.317708015442,1,1,0,0,1,0.00117707252502,0.51464509964,,,,,,,,LearningTask,,,59.9743190105,3,2015_May_29_1523,11,
,,,m,0,200,,,,,,,,,,1,1,3,1,,,,,,,,,,,,,,,,,87.3095860481,,,,,,,90.3108038902,-1,go,diamondgray.gif,m,1,0.550999879837,None,3,0.868707895279,2,1,0,0,1,0.00120615959167,0.514173030853,,,,,,,,LearningTask,,,59.9743190105,3,2015_May_29_1523,11,
,,,m,0,200,,,,,,,,,,2,0,4,1,,,,,,,,,,,,,,,,,90.3113539219,,,,,,,93.3137869835,0.25,stop,lineyellow.gif,None,0,,None,3,0.868707895279,2,2,1,0,1,0.00112700462341,0.51515007019,0.765392065048,,,,,,,LearningTask,,,59.9743190105,3,2015_May_29_1523,11,
,,,m,0,200,,,,,,,,,,2,1,5,1,,,,,,,,,,,,,,,,,93.314332962,,,,,,,96.3160278797,0.25,stop,lineyellow.gif,None,0,,None,3,0.868707895279,2,3,2,0,1,0.00095009803772,0.514691114426,0.765058994293,,,,,,,LearningTask,,,59.9743190105,3,2015_May_29_1523,11,
,,,z,0,-200,,,,,,,,,,3,0,6,0,,,,,,,,,,,,,,,,,96.3164710999,,,,,,,99.3184700012,0.25,stop,invertedtriangleblue.gif,z,1,0.584122896194,None,3,0.868707895279,2,4,2,0,1,0.00231599807739,0.515055179596,0.765247106552,,,,,,,LearningTask,,,59.9743190105,3,2015_May_29_1523,11,
,,,z,0,-200,,,,,,,,,,3,1,7,0,,,,,,,,,,,,,,,,,99.3190019131,,,,,,,102.320951939,-1,go,squarecyan.gif,z,1,0.584140777588,None,4,1.45284867287,3,4,2,0,1,0.00243711471558,0.515068054199,,,,,,,,LearningTask,,,59.9743190105,3,2015_May_29_1523,11,
,,,z,0,-200,,,,,,,,,,4,0,8,0,,,,,,,,,,,,,,,,,102.321456909,,,,,,,105.323328018,0.25,stop,crosswhite.gif,None,0,,None,4,1.45284867287,3,5,3,0,1,0.0011579990387,0.514966964722,0.765293836594,,,,,,,LearningTask,,,59.9743190105,3,2015_May_29_1523,11,
,,,z,0,-200,,,,,,,,,,4,1,9,0,,,,,,,,,,,,,,,,,105.323945045,,,,,,,108.325963974,-1,go,hexagonmagenta.gif,z,1,0.634105920792,None,5,2.08695459366,4,5,3,0,1,0.00224590301514,0.514880895615,,,,,,,,LearningTask,,,59.9743190105,3,2015_May_29_1523,11,
,,,,,,,,,,,,,,,,,,,,,,,,,,,,,,,,,,,,,,,,,,,,,,,,,,,,,,,,,,,,space,4.14137005806,,,,,LearningTask,,,59.9743190105,3,2015_May_29_1523,11,
,,,,,,,,,,,,,,,,,,,,,,,,,,,,,,,,,space,0.598961114883,,,,,,,,,,,,,,,,,,,,,,,,,,,,,,,,LearningTask,,,59.9743190105,3,2015_May_29_1523,11,
200,w,200,,,,,,,,,,,,,,,,,0,0,0,0,None,0,0,0,0,0,0,0,0,None,,,113.347860098,w,1,0.484606027603,None,0.513861894608,0.0010039806366,116.347750902,,,,,,,,,,,,,,,,,,,,113.346345901,113.346551895,1.79,,LearningTask,,,59.9743190105,3,2015_May_29_1523,11,
200,w,200,,,,,,,,,,,,,,,,,0,0,0,0,None,0,0,0,0,,,,,,,,,,,,,,,,,,,,,,,,,,,,,,,,,,,,,,,LearningTask,,,59.9743190105,3,2015_May_29_1523,11,
200,s,-200,,,,,,,,,,,,,,,,,0,0,0,0,None,0,1,1,2,0,0,0,0,None,,,116.548701048,s,1,0.484295845032,None,0.515763998032,0.00113487243652,119.550549984,,,,,,,,,,,,,,,,,,,,116.547337055,116.547493935,3.8,,LearningTask,,,59.9743190105,3,2015_May_29_1523,11,
200,s,-200,,,,,,,,,,,,,,,,,0,0,0,0,None,0,1,1,2,,,,,,,,,,,,,,,,,,,,,,,,,,,,,,,,,,,,,,,LearningTask,,,59.9743190105,3,2015_May_29_1523,11,
-200,q,200,,,,,,,,,,,,,,,,,0,0,0,0,None,0,2,2,1,0,0,0,0,None,,,119.757868052,q,1,0.367205858231,q,0.509579181671,0.00103306770325,122.752966881,,,,,,,,,,,,,,,,,,,,119.756459951,119.756634951,1.83,0.67360496521,LearningTask,,,59.9743190105,3,2015_May_29_1523,11,
-200,q,200,,,,,,,,,,,,,,,,,0,0,0,0,None,0,2,2,1,,,,,,,,,,,,,,,,,,,,,,,,,,,,,,,,,,,,,,,LearningTask,,,59.9743190105,3,2015_May_29_1523,11,
200,w,200,,,,,,,,,,,,,,,,,0,0,0,0,None,0,3,3,0,0,0,0,0,None,,,122.97001195,w,1,0.0674810409546,None,0.500206947327,0.000971794128418,125.972322941,,,,,,,,,,,,,,,,,,,,122.968636036,122.968812943,1.98,,LearningTask,,,59.9743190105,3,2015_May_29_1523,11,
200,w,200,,,,,,,,,,,,,,,,,0,0,0,0,None,0,3,3,0,,,,,,,,,,,,,,,,,,,,,,,,,,,,,,,,,,,,,,,LearningTask,,,59.9743190105,3,2015_May_29_1523,11,
200,w,200,,,,,,,,,,,,,,,,,0,0,0,0,None,1,0,4,0,0,0,0,0,None,,,126.246397972,s,0,0.467605829239,None,0.509598016739,0.00100088119507,129.241825104,,,,,,,,,,,,,,,,,,,,126.245056868,126.245229006,2.01,,LearningTask,,,59.9743190105,3,2015_May_29_1523,11,
200,w,200,,,,,,,,,,,,,,,,,0,0,0,0,None,1,0,4,0,1,0,1,0,None,,,129.24278307,w,1,0.867286920547,None,0.51540517807,0.00157999992371,132.243788004,,,,,,,,,,,,,,,,,,,,,,2.22,,LearningTask,,,59.9743190105,3,2015_May_29_1523,11,
200,w,200,,,,,,,,,,,,,,,,,0,0,0,0,None,1,0,4,0,,,,,,,,,,,,,,,,,,,,,,,,,,,,,,,,,,,,,,,LearningTask,,,59.9743190105,3,2015_May_29_1523,11,
200,s,-200,,,,,,,,,,,,,,,,,0,0,0,0,None,1,1,5,2,0,0,0,0,None,,,132.48989296,s,1,0.500781059265,None,0.504124879837,0.000977993011475,135.479578018,,,,,,,,,,,,,,,,,,,,132.488568068,132.48872304,1.0,,LearningTask,,,59.9743190105,3,2015_May_29_1523,11,
200,s,-200,,,,,,,,,,,,,,,,,0,0,0,0,None,1,1,5,2,,,,,,,,,,,,,,,,,,,,,,,,,,,,,,,,,,,,,,,LearningTask,,,59.9743190105,3,2015_May_29_1523,11,
-200,a,-200,,,,,,,,,,,,,,,,,0,0,0,0,None,1,2,6,3,0,0,0,0,None,,,135.735570908,a,1,0.534582853317,None,0.510568141937,0.00111508369446,138.732095957,,,,,,,,,,,,,,,,,,,,135.733961105,135.734117985,0.38,,LearningTask,,,59.9743190105,3,2015_May_29_1523,11,
-200,a,-200,,,,,,,,,,,,,,,,,0,0,0,0,None,1,2,6,3,,,,,,,,,,,,,,,,,,,,,,,,,,,,,,,,,,,,,,,LearningTask,,,59.9743190105,3,2015_May_29_1523,11,
200,s,-200,,,,,,,,,,,,,,,,,0,0,0,0,None,1,3,7,2,0,0,0,0,None,,,138.983795881,s,1,0.334167003632,None,0.515651941299,0.00107479095459,141.984998941,,,,,,,,,,,,,,,,,,,,138.982295036,138.982503891,0.7,,LearningTask,,,59.9743190105,3,2015_May_29_1523,11,
200,s,-200,,,,,,,,,,,,,,,,,0,0,0,0,None,1,3,7,2,,,,,,,,,,,,,,,,,,,,,,,,,,,,,,,,,,,,,,,LearningTask,,,59.9743190105,3,2015_May_29_1523,11,
-200,a,-200,,,,,,,,,,,,,,,,,0,0,0,0,None,2,0,8,3,0,0,0,0,None,,,142.243022919,a,1,0.767836093903,None,0.508772134781,0.000977993011475,145.237842083,,,,,,,,,,,,,,,,,,,,142.241642952,142.241811037,1.84,,LearningTask,,,59.9743190105,3,2015_May_29_1523,11,
-200,a,-200,,,,,,,,,,,,,,,,,0,0,0,0,None,2,0,8,3,,,,,,,,,,,,,,,,,,,,,,,,,,,,,,,,,,,,,,,LearningTask,,,59.9743190105,3,2015_May_29_1523,11,
-200,a,-200,,,,,,,,,,,,,,,,,0,0,0,0,None,2,1,9,3,0,0,0,0,None,,,145.548172951,None,0,,a,0.506500959396,0.0010290145874,148.528939962,,,,,,,,,,,,,,,,,,,,145.546734095,145.546907902,2.24,0.0561549663544,LearningTask,,,59.9743190105,3,2015_May_29_1523,11,
-200,a,-200,,,,,,,,,,,,,,,,,0,0,0,0,None,2,1,9,3,1,0,1,0,None,,,148.529486895,a,1,0.217375993729,None,0.510949134827,0.00104212760925,151.526520014,,,,,,,,,,,,,,,,,,,,,,1.8,,LearningTask,,,59.9743190105,3,2015_May_29_1523,11,
-200,a,-200,,,,,,,,,,,,,,,,,0,0,0,0,None,2,1,9,3,,,,,,,,,,,,,,,,,,,,,,,,,,,,,,,,,,,,,,,LearningTask,,,59.9743190105,3,2015_May_29_1523,11,
-200,q,200,,,,,,,,,,,,,,,,,0,0,0,0,None,2,2,10,1,0,0,0,0,None,,,151.798672915,q,1,0.283879041672,None,0.511205911636,0.000971794128418,154.795670986,,,,,,,,,,,,,,,,,,,,151.797373056,151.797549009,0.9,,LearningTask,,,59.9743190105,3,2015_May_29_1523,11,
-200,q,200,,,,,,,,,,,,,,,,,0,0,0,0,None,2,2,10,1,,,,,,,,,,,,,,,,,,,,,,,,,,,,,,,,,,,,,,,LearningTask,,,59.9743190105,3,2015_May_29_1523,11,
-200,q,200,,,,,,,,,,,,,,,,,0,0,0,0,None,2,3,11,1,0,0,0,0,None,,,155.080038071,q,1,0.467690944672,None,0.51558303833,0.000986099243164,158.081336021,,,,,,,,,,,,,,,,,,,,155.078741074,155.078896999,3.77,,LearningTask,,,59.9743190105,3,2015_May_29_1523,11,
-200,q,200,,,,,,,,,,,,,,,,,0,0,0,0,None,2,3,11,1,,,,,,,,,,,,,,,,,,,,,,,,,,,,,,,,,,,,,,,LearningTask,,,59.9743190105,3,2015_May_29_1523,11,
200,w,200,,,,,,,,,,,,,,,,,0,0,0,0,None,3,0,12,0,0,0,0,0,None,,,158.370635033,w,1,0.334407091141,None,0.510761976242,0.00108003616333,161.367126942,,,,,,,,,,,,,,,,,,,,158.369134903,158.369313955,1.22,,LearningTask,,,59.9743190105,3,2015_May_29_1523,11,
200,w,200,,,,,,,,,,,,,,,,,0,0,0,0,None,3,0,12,0,,,,,,,,,,,,,,,,,,,,,,,,,,,,,,,,,,,,,,,LearningTask,,,59.9743190105,3,2015_May_29_1523,11,
200,w,200,,,,,,,,,,,,,,,,,0,0,0,0,None,3,1,13,0,0,0,0,0,None,,,161.713959932,w,1,0.584356069565,None,0.503355979919,0.00100016593933,164.703193903,,,,,,,,,,,,,,,,,,,,161.712460041,161.712635994,0.71,,LearningTask,,,59.9743190105,3,2015_May_29_1523,11,
200,w,200,,,,,,,,,,,,,,,,,0,0,0,0,None,3,1,13,0,,,,,,,,,,,,,,,,,,,,,,,,,,,,,,,,,,,,,,,LearningTask,,,59.9743190105,3,2015_May_29_1523,11,
200,w,200,,,,,,,,,,,,,,,,,0,0,0,0,None,3,2,14,0,0,0,0,0,None,,,165.006597996,w,1,0.400911092758,None,0.513453960419,0.000993013381958,168.005856037,,,,,,,,,,,,,,,,,,,,165.005171061,165.00534296,3.92,,LearningTask,,,59.9743190105,3,2015_May_29_1523,11,
200,w,200,,,,,,,,,,,,,,,,,0,0,0,0,None,3,2,14,0,,,,,,,,,,,,,,,,,,,,,,,,,,,,,,,,,,,,,,,LearningTask,,,59.9743190105,3,2015_May_29_1523,11,
200,s,-200,,,,,,,,,,,,,,,,,0,0,0,0,None,3,3,15,2,0,0,0,0,None,,,168.319500923,s,1,0.401249885559,None,0.503340959549,0.000931024551392,171.308870077,,,,,,,,,,,,,,,,,,,,168.318156958,168.318312883,4.17,,LearningTask,,,59.9743190105,3,2015_May_29_1523,11,
200,s,-200,,,,,,,,,,,,,,,,,0,0,0,0,None,3,3,15,2,,,,,,,,,,,,,,,,,,,,,,,,,,,,,,,,,,,,,,,LearningTask,,,59.9743190105,3,2015_May_29_1523,11,
200,w,200,,,,,,,,,,,,,,,,,0,0,0,0,None,4,0,16,0,0,0,0,0,None,,,171.635477066,w,1,0.45140504837,None,0.506863117218,0.00103902816772,174.628341913,,,,,,,,,,,,,,,,,,,,171.633933067,171.63410902,3.78,,LearningTask,,,59.9743190105,3,2015_May_29_1523,11,
200,w,200,,,,,,,,,,,,,,,,,0,0,0,0,None,4,0,16,0,,,,,,,,,,,,,,,,,,,,,,,,,,,,,,,,,,,,,,,LearningTask,,,59.9743190105,3,2015_May_29_1523,11,
-200,a,-200,,,,,,,,,,,,,,,,,0,0,0,0,None,4,1,17,3,0,0,0,0,None,,,175.017175913,a,1,0.550911903381,None,0.511449098587,0.00108695030212,178.014194012,,,,,,,,,,,,,,,,,,,,175.015822887,175.015981913,4.25,,LearningTask,,,59.9743190105,3,2015_May_29_1523,11,
-200,a,-200,,,,,,,,,,,,,,,,,0,0,0,0,None,4,1,17,3,,,,,,,,,,,,,,,,,,,,,,,,,,,,,,,,,,,,,,,LearningTask,,,59.9743190105,3,2015_May_29_1523,11,
-200,a,-200,,,,,,,,,,,,,,,,,0,0,0,0,None,4,2,18,3,0,0,0,0,None,,,178.384334087,a,1,0.450850009918,None,0.513651847839,0.00103497505188,181.38352704,,,,,,,,,,,,,,,,,,,,178.382795095,178.383055925,2.22,,LearningTask,,,59.9743190105,3,2015_May_29_1523,11,
-200,a,-200,,,,,,,,,,,,,,,,,0,0,0,0,None,4,2,18,3,,,,,,,,,,,,,,,,,,,,,,,,,,,,,,,,,,,,,,,LearningTask,,,59.9743190105,3,2015_May_29_1523,11,
-200,a,-200,,,,,,,,,,,,,,,,,0,0,0,0,None,4,3,19,3,0,0,0,0,None,,,181.742093086,a,1,0.517562866211,None,0.508246898651,0.00101804733276,184.736003876,,,,,,,,,,,,,,,,,,,,181.740679026,181.740846872,3.96,,LearningTask,,,59.9743190105,3,2015_May_29_1523,11,
-200,a,-200,,,,,,,,,,,,,,,,,0,0,0,0,None,4,3,19,3,,,,,,,,,,,,,,,,,,,,,,,,,,,,,,,,,,,,,,,LearningTask,,,59.9743190105,3,2015_May_29_1523,11,
-200,a,-200,,,,,,,,,,,,,,,,,0,0,0,0,None,5,0,20,3,0,0,0,0,None,,,185.145739079,a,1,0.517589092255,None,0.506993055344,0.000979900360107,188.138724089,,,,,,,,,,,,,,,,,,,,185.144457102,185.144618034,0.36,,LearningTask,,,59.9743190105,3,2015_May_29_1523,11,
-200,a,-200,,,,,,,,,,,,,,,,,0,0,0,0,None,5,0,20,3,,,,,,,,,,,,,,,,,,,,,,,,,,,,,,,,,,,,,,,LearningTask,,,59.9743190105,3,2015_May_29_1523,11,
200,w,200,,,,,,,,,,,,,,,,,0,0,0,0,None,5,1,21,0,0,0,0,0,None,,,188.513000011,w,1,0.58479309082,None,0.509212017059,0.000959873199463,191.508260965,,,,,,,,,,,,,,,,,,,,188.511584044,188.511759043,1.03,,LearningTask,,,59.9743190105,3,2015_May_29_1523,11,
200,w,200,,,,,,,,,,,,,,,,,0,0,0,0,None,5,1,21,0,,,,,,,,,,,,,,,,,,,,,,,,,,,,,,,,,,,,,,,LearningTask,,,59.9743190105,3,2015_May_29_1523,11,
200,s,-200,,,,,,,,,,,,,,,,,0,0,0,0,None,5,2,22,2,0,0,0,0,None,,,191.889957905,s,1,0.551047086716,None,0.501779079437,0.000940084457397,194.894383907,,,,,,,,,,,,,,,,,,,,191.888588905,191.888772011,0.26,,LearningTask,,,59.9743190105,3,2015_May_29_1523,11,
200,s,-200,,,,,,,,,,,,,,,,,0,0,0,0,None,5,2,22,2,,,,,,,,,,,,,,,,,,,,,,,,,,,,,,,,,,,,,,,LearningTask,,,59.9743190105,3,2015_May_29_1523,11,
-200,a,-200,,,,,,,,,,,,,,,,,0,0,0,0,None,5,3,23,3,0,0,0,0,None,,,195.294964075,a,1,0.334166049957,q,0.516309022903,0.000993967056274,198.293188095,,,,,,,,,,,,,,,,,,,,195.293569088,195.29373908,0.26,0.473541975021,LearningTask,,,59.9743190105,3,2015_May_29_1523,11,
-200,a,-200,,,,,,,,,,,,,,,,,0,0,0,0,None,5,3,23,3,,,,,,,,,,,,,,,,,,,,,,,,,,,,,,,,,,,,,,,LearningTask,,,59.9743190105,3,2015_May_29_1523,11,
