xPos,corrAns,yPos,corrGoResp,yPosGoStim,xPosGoStim,pracTrials.thisRepN,pracTrials.thisTrialN,pracTrials.thisN,pracTrials.thisIndex,ReDoLoopPrac.thisRepN,ReDoLoopPrac.thisTrialN,ReDoLoopPrac.thisN,ReDoLoopPrac.thisIndex,ReDoLoopPrac.thisTrial,pracStopTrials.thisRepN,pracStopTrials.thisTrialN,pracStopTrials.thisN,pracStopTrials.thisIndex,Blocks.thisRepN,Blocks.thisTrialN,Blocks.thisN,Blocks.thisIndex,Blocks.thisTrial,trials.thisRepN,trials.thisTrialN,trials.thisN,trials.thisIndex,ReDoLoopMain.thisRepN,ReDoLoopMain.thisTrialN,ReDoLoopMain.thisN,ReDoLoopMain.thisIndex,ReDoLoopMain.thisTrial,ok1.keys,ok1.rt,StartTrialTimeStamp,resp.keys,resp.corr,resp.rt,key_resp_8.keys,learningStimOnset,learningFixOnset,EndTrialTimeStamp,beginningSSD,trialType,goStim,goResp.keys,goResp.corr,goResp.rt,key_resp_9.keys,goTrailCountOutput,goCumRTOutput,goRTCountOutput,stopTrialCountOutput,stopSuccessCountOutput,omissionCountOutput,commissionCountOutput,fixStopOnset,goStimOnset,stopSignalOnset,key_resp_3.keys,key_resp_3.rt,NewStimTimeStamp,EndNewStimTimeStamp,computedRewardOutput,expName,gender (m/f),age,frameRate,session,date,participant,
,,,,,,,,,,,,,,,,,,,,,,,,,,,,,,,,,space,0.478091001511,,,,,,,,,,,,,,,,,,,,,,,,,,,,,,,LearningTask,,,59.8157454892,3,2015_Jun_02_0948,15,
200,w,200,,,,0,0,0,4,0,0,0,0,None,,,,,,,,,,,,,,,,,,,,,19.4978199005,w,1,0.58443903923,None,0.500011920929,0.00383496284485,22.500027895,,,,,,,,,,,,,,,,,,,,,,,LearningTask,,,59.8157454892,3,2015_Jun_02_0948,15,
200,w,200,,,,0,0,0,4,,,,,,,,,,,,,,,,,,,,,,,,,,,,,,,,,,,,,,,,,,,,,,,,,,,,,,,,LearningTask,,,59.8157454892,3,2015_Jun_02_0948,15,
-200,q,200,,,,0,1,1,5,0,0,0,0,None,,,,,,,,,,,,,,,,,,,,,22.5284929276,q,1,0.317260980606,None,0.505183935165,0.00162410736084,25.5190870762,,,,,,,,,,,,,,,,,,,,,,,LearningTask,,,59.8157454892,3,2015_Jun_02_0948,15,
-200,q,200,,,,0,1,1,5,,,,,,,,,,,,,,,,,,,,,,,,,,,,,,,,,,,,,,,,,,,,,,,,,,,,,,,,LearningTask,,,59.8157454892,3,2015_Jun_02_0948,15,
200,w,200,,,,0,2,2,0,0,0,0,0,None,,,,,,,,,,,,,,,,,,,,,25.5589950085,w,1,0.384105920792,None,0.510265111923,0.0016450881958,28.5549740791,,,,,,,,,,,,,,,,,,,,,,,LearningTask,,,59.8157454892,3,2015_Jun_02_0948,15,
200,w,200,,,,0,2,2,0,,,,,,,,,,,,,,,,,,,,,,,,,,,,,,,,,,,,,,,,,,,,,,,,,,,,,,,,LearningTask,,,59.8157454892,3,2015_Jun_02_0948,15,
-200,a,-200,,,,0,3,3,7,0,0,0,0,None,,,,,,,,,,,,,,,,,,,,,28.6064140797,q,0,0.334098100662,None,0.515161037445,0.000946044921875,31.6071400642,,,,,,,,,,,,,,,,,,,,,,,LearningTask,,,59.8157454892,3,2015_Jun_02_0948,15,
-200,a,-200,,,,0,3,3,7,1,0,1,0,None,,,,,,,,,,,,,,,,,,,,,31.6078460217,a,1,0.367553949356,None,0.51611495018,0.00152683258057,34.609662056,,,,,,,,,,,,,,,,,,,,,,,LearningTask,,,59.8157454892,3,2015_Jun_02_0948,15,
-200,a,-200,,,,0,3,3,7,,,,,,,,,,,,,,,,,,,,,,,,,,,,,,,,,,,,,,,,,,,,,,,,,,,,,,,,LearningTask,,,59.8157454892,3,2015_Jun_02_0948,15,
-200,a,-200,,,,0,4,4,3,0,0,0,0,None,,,,,,,,,,,,,,,,,,,,,34.6727750301,a,1,0.90122795105,None,0.503828048706,0.00188207626343,37.6619770527,,,,,,,,,,,,,,,,,,,,,,,LearningTask,,,59.8157454892,3,2015_Jun_02_0948,15,
-200,a,-200,,,,0,4,4,3,,,,,,,,,,,,,,,,,,,,,,,,,,,,,,,,,,,,,,,,,,,,,,,,,,,,,,,,LearningTask,,,59.8157454892,3,2015_Jun_02_0948,15,
200,s,-200,,,,0,5,5,2,0,0,0,0,None,,,,,,,,,,,,,,,,,,,,,37.724848032,s,1,0.283994913101,None,0.503988981247,0.00098705291748,40.7145700455,,,,,,,,,,,,,,,,,,,,,,,LearningTask,,,59.8157454892,3,2015_Jun_02_0948,15,
200,s,-200,,,,0,5,5,2,,,,,,,,,,,,,,,,,,,,,,,,,,,,,,,,,,,,,,,,,,,,,,,,,,,,,,,,LearningTask,,,59.8157454892,3,2015_Jun_02_0948,15,
200,s,-200,,,,0,6,6,6,0,0,0,0,None,,,,,,,,,,,,,,,,,,,,,40.7893049717,s,1,0.334078073502,None,0.508806228638,0.00157308578491,43.783755064,,,,,,,,,,,,,,,,,,,,,,,LearningTask,,,59.8157454892,3,2015_Jun_02_0948,15,
200,s,-200,,,,0,6,6,6,,,,,,,,,,,,,,,,,,,,,,,,,,,,,,,,,,,,,,,,,,,,,,,,,,,,,,,,LearningTask,,,59.8157454892,3,2015_Jun_02_0948,15,
200,w,200,,,,0,7,7,8,0,0,0,0,None,,,,,,,,,,,,,,,,,,,,,43.8682510853,w,1,0.467484951019,None,0.515688896179,0.00170493125916,46.8696250916,,,,,,,,,,,,,,,,,,,,,,,LearningTask,,,59.8157454892,3,2015_Jun_02_0948,15,
200,w,200,,,,0,7,7,8,,,,,,,,,,,,,,,,,,,,,,,,,,,,,,,,,,,,,,,,,,,,,,,,,,,,,,,,LearningTask,,,59.8157454892,3,2015_Jun_02_0948,15,
-200,q,200,,,,0,8,8,1,0,0,0,0,None,,,,,,,,,,,,,,,,,,,,,46.9632530212,q,1,0.434163808823,None,0.50648188591,0.00106382369995,49.9553060532,,,,,,,,,,,,,,,,,,,,,,,LearningTask,,,59.8157454892,3,2015_Jun_02_0948,15,
-200,q,200,,,,0,8,8,1,,,,,,,,,,,,,,,,,,,,,,,,,,,,,,,,,,,,,,,,,,,,,,,,,,,,,,,,LearningTask,,,59.8157454892,3,2015_Jun_02_0948,15,
-200,q,200,,,,0,9,9,9,0,0,0,0,None,,,,,,,,,,,,,,,,,,,,,50.0544140339,q,1,0.434201002121,None,0.501037836075,0.000990867614746,53.0578289032,,,,,,,,,,,,,,,,,,,,,,,LearningTask,,,59.8157454892,3,2015_Jun_02_0948,15,
-200,q,200,,,,0,9,9,9,,,,,,,,,,,,,,,,,,,,,,,,,,,,,,,,,,,,,,,,,,,,,,,,,,,,,,,,LearningTask,,,59.8157454892,3,2015_Jun_02_0948,15,
,,,m,0,200,,,,,,,,,,0,0,0,1,,,,,,,,,,,,,,,,,54.3928449154,,,,,,,57.3955430984,-1,go,hexagongreen.gif,m,1,0.367233991623,None,1,0.367233991623,1,0,0,0,0,0.00142288208008,0.515215873718,,,,,,,LearningTask,,,59.8157454892,3,2015_Jun_02_0948,15,
,,,z,0,-200,,,,,,,,,,0,1,1,0,,,,,,,,,,,,,,,,,57.39605093,,,,,,,60.3982219696,0.25,stop,invertedtrianglemagenta.gif,z,1,0.317316055298,None,1,0.367233991623,1,1,0,0,0,0.00128698348999,0.514945983887,0.765131950378,,,,,,LearningTask,,,59.8157454892,3,2015_Jun_02_0948,15,
,,,z,0,-200,,,,,,,,,,1,0,2,0,,,,,,,,,,,,,,,,,60.3987898827,,,,,,,63.400578022,-1,go,circleblue.gif,z,1,0.617334127426,None,2,0.984568119049,2,1,0,0,0,0.00107312202454,0.514698982239,,,,,,,LearningTask,,,59.8157454892,3,2015_Jun_02_0948,15,
,,,z,0,-200,,,,,,,,,,1,1,3,0,,,,,,,,,,,,,,,,,63.4013381004,,,,,,,66.4023330212,-1,go,hexagongreen.gif,z,1,0.367602109909,None,3,1.35217022896,3,1,0,0,0,0.00147008895874,0.513997077942,,,,,,,LearningTask,,,59.8157454892,3,2015_Jun_02_0948,15,
,,,z,0,-200,,,,,,,,,,2,0,4,0,,,,,,,,,,,,,,,,,66.4027779102,,,,,,,69.4059278965,-1,go,circleblue.gif,z,1,0.734724998474,None,4,2.08689522743,4,1,0,0,0,0.000969886779785,0.515486001968,,,,,,,LearningTask,,,59.8157454892,3,2015_Jun_02_0948,15,
,,,m,0,200,,,,,,,,,,2,1,5,1,,,,,,,,,,,,,,,,,69.406514883,,,,,,,72.4081189632,-1,go,trianglegray.gif,m,1,0.517803907394,None,5,2.60469913483,5,1,0,0,0,0.0013439655304,0.513962984085,,,,,,,LearningTask,,,59.8157454892,3,2015_Jun_02_0948,15,
,,,m,0,200,,,,,,,,,,3,0,6,1,,,,,,,,,,,,,,,,,72.4088139534,,,,,,,75.4103150368,0.25,stop,crosscyan.gif,None,0,,None,5,2.60469913483,5,2,1,0,0,0.00269794464111,0.513919115067,0.764029026031,,,,,,LearningTask,,,59.8157454892,3,2015_Jun_02_0948,15,
,,,m,0,200,,,,,,,,,,3,1,7,1,,,,,,,,,,,,,,,,,75.4109039307,,,,,,,78.4128820896,0.25,stop,crosscyan.gif,m,1,0.451031923294,None,5,2.60469913483,5,3,1,0,0,0.0012640953064,0.514310121536,0.764436006546,,,,,,LearningTask,,,59.8157454892,3,2015_Jun_02_0948,15,
,,,z,0,-200,,,,,,,,,,4,0,8,0,,,,,,,,,,,,,,,,,78.4134809971,,,,,,,81.41467309,0.25,stop,crosscyan.gif,None,0,,None,5,2.60469913483,5,4,2,0,0,0.00154995918274,0.514019966125,0.764093875885,,,,,,LearningTask,,,59.8157454892,3,2015_Jun_02_0948,15,
,,,m,0,200,,,,,,,,,,4,1,9,1,,,,,,,,,,,,,,,,,81.4154860973,,,,,,,84.4173500538,-1,go,hexagongreen.gif,m,1,0.434309005737,None,6,3.03900814056,6,4,2,0,0,0.00154399871826,0.514071941376,,,,,,,LearningTask,,,59.8157454892,3,2015_Jun_02_0948,15,
,,,,,,,,,,,,,,,,,,,,,,,,,,,,,,,,,,,,,,,,,,,,,,,,,,,,,,,,,,,,space,6.17333889008,,,,LearningTask,,,59.8157454892,3,2015_Jun_02_0948,15,
,,,,,,,,,,,,,,,,,,,,,,,,,,,,,,,,,space,0.716396093369,,,,,,,,,,,,,,,,,,,,,,,,,,,,,,,LearningTask,,,59.8157454892,3,2015_Jun_02_0948,15,
200,s,-200,,,,,,,,,,,,,,,,,0,0,0,0,None,0,0,0,2,0,0,0,0,None,,,91.5912768841,s,1,0.300900936127,None,0.513849973679,0.000996112823486,94.5908870697,,,,,,,,,,,,,,,,,,,,91.5897219181,91.5899329185,4.21,LearningTask,,,59.8157454892,3,2015_Jun_02_0948,15,
200,s,-200,,,,,,,,,,,,,,,,,0,0,0,0,None,0,0,0,2,,,,,,,,,,,,,,,,,,,,,,,,,,,,,,,,,,,,,,LearningTask,,,59.8157454892,3,2015_Jun_02_0948,15,
200,w,200,,,,,,,,,,,,,,,,,0,0,0,0,None,0,1,1,0,0,0,0,0,None,,,94.7938890457,w,1,0.35088300705,None,0.513775110245,0.00106596946716,97.7936620712,,,,,,,,,,,,,,,,,,,,94.7923870087,94.7925860882,1.9,LearningTask,,,59.8157454892,3,2015_Jun_02_0948,15,
200,w,200,,,,,,,,,,,,,,,,,0,0,0,0,None,0,1,1,0,,,,,,,,,,,,,,,,,,,,,,,,,,,,,,,,,,,,,,LearningTask,,,59.8157454892,3,2015_Jun_02_0948,15,
-200,q,200,,,,,,,,,,,,,,,,,0,0,0,0,None,0,2,2,1,0,0,0,0,None,,,97.9989209175,q,1,0.351196050644,None,0.511235952377,0.000978946685791,100.99604702,,,,,,,,,,,,,,,,,,,,97.9974880219,97.9976480007,4.0,LearningTask,,,59.8157454892,3,2015_Jun_02_0948,15,
-200,q,200,,,,,,,,,,,,,,,,,0,0,0,0,None,0,2,2,1,,,,,,,,,,,,,,,,,,,,,,,,,,,,,,,,,,,,,,LearningTask,,,59.8157454892,3,2015_Jun_02_0948,15,
200,w,200,,,,,,,,,,,,,,,,,0,0,0,0,None,0,3,3,0,0,0,0,0,None,,,101.214863062,w,1,0.334393978119,None,0.514588117599,0.00094199180603,104.215557098,,,,,,,,,,,,,,,,,,,,101.213442087,101.21360898,3.79,LearningTask,,,59.8157454892,3,2015_Jun_02_0948,15,
200,w,200,,,,,,,,,,,,,,,,,0,0,0,0,None,0,3,3,0,,,,,,,,,,,,,,,,,,,,,,,,,,,,,,,,,,,,,,LearningTask,,,59.8157454892,3,2015_Jun_02_0948,15,
-200,q,200,,,,,,,,,,,,,,,,,0,0,0,0,None,1,0,4,1,0,0,0,0,None,,,104.493810892,q,1,0.400833129883,None,0.504722118378,0.00100302696228,107.484353065,,,,,,,,,,,,,,,,,,,,104.491904974,104.492100954,2.25,LearningTask,,,59.8157454892,3,2015_Jun_02_0948,15,
-200,q,200,,,,,,,,,,,,,,,,,0,0,0,0,None,1,0,4,1,,,,,,,,,,,,,,,,,,,,,,,,,,,,,,,,,,,,,,LearningTask,,,59.8157454892,3,2015_Jun_02_0948,15,
-200,a,-200,,,,,,,,,,,,,,,,,0,0,0,0,None,1,1,5,3,0,0,0,0,None,,,107.714766026,a,1,0.350703954697,None,0.503163099289,0.00096607208252,110.720455885,,,,,,,,,,,,,,,,,,,,107.713326931,107.713526011,0.99,LearningTask,,,59.8157454892,3,2015_Jun_02_0948,15,
-200,a,-200,,,,,,,,,,,,,,,,,0,0,0,0,None,1,1,5,3,,,,,,,,,,,,,,,,,,,,,,,,,,,,,,,,,,,,,,LearningTask,,,59.8157454892,3,2015_Jun_02_0948,15,
200,s,-200,,,,,,,,,,,,,,,,,0,0,0,0,None,1,2,6,2,0,0,0,0,None,,,110.966769934,s,1,0.267471075058,None,0.503841876984,0.00179600715637,113.956289053,,,,,,,,,,,,,,,,,,,,110.965420961,110.965575933,0.87,LearningTask,,,59.8157454892,3,2015_Jun_02_0948,15,
200,s,-200,,,,,,,,,,,,,,,,,0,0,0,0,None,1,2,6,2,,,,,,,,,,,,,,,,,,,,,,,,,,,,,,,,,,,,,,LearningTask,,,59.8157454892,3,2015_Jun_02_0948,15,
-200,a,-200,,,,,,,,,,,,,,,,,0,0,0,0,None,1,3,7,3,0,0,0,0,None,,,114.202646971,a,1,0.351155996323,None,0.503795862198,0.00095796585083,117.192195892,,,,,,,,,,,,,,,,,,,,114.201155901,114.201338053,4.02,LearningTask,,,59.8157454892,3,2015_Jun_02_0948,15,
-200,a,-200,,,,,,,,,,,,,,,,,0,0,0,0,None,1,3,7,3,,,,,,,,,,,,,,,,,,,,,,,,,,,,,,,,,,,,,,LearningTask,,,59.8157454892,3,2015_Jun_02_0948,15,
-200,a,-200,,,,,,,,,,,,,,,,,0,0,0,0,None,2,0,8,3,0,0,0,0,None,,,117.446594954,a,1,0.417511940002,None,0.512462854385,0.00098705291748,120.445039988,,,,,,,,,,,,,,,,,,,,117.445242882,117.445408106,3.91,LearningTask,,,59.8157454892,3,2015_Jun_02_0948,15,
-200,a,-200,,,,,,,,,,,,,,,,,0,0,0,0,None,2,0,8,3,,,,,,,,,,,,,,,,,,,,,,,,,,,,,,,,,,,,,,LearningTask,,,59.8157454892,3,2015_Jun_02_0948,15,
200,w,200,,,,,,,,,,,,,,,,,0,0,0,0,None,2,1,9,0,0,0,0,0,None,,,120.752408981,w,1,0.317566871643,None,0.50920009613,0.000936031341553,123.747292995,,,,,,,,,,,,,,,,,,,,120.7509799,120.751156092,1.99,LearningTask,,,59.8157454892,3,2015_Jun_02_0948,15,
200,w,200,,,,,,,,,,,,,,,,,0,0,0,0,None,2,1,9,0,,,,,,,,,,,,,,,,,,,,,,,,,,,,,,,,,,,,,,LearningTask,,,59.8157454892,3,2015_Jun_02_0948,15,
-200,a,-200,,,,,,,,,,,,,,,,,0,0,0,0,None,2,2,10,3,0,0,0,0,None,,,124.034188986,a,1,0.367508888245,None,0.513370037079,0.000941038131714,127.033396006,,,,,,,,,,,,,,,,,,,,124.032736063,124.032907963,3.76,LearningTask,,,59.8157454892,3,2015_Jun_02_0948,15,
-200,a,-200,,,,,,,,,,,,,,,,,0,0,0,0,None,2,2,10,3,,,,,,,,,,,,,,,,,,,,,,,,,,,,,,,,,,,,,,LearningTask,,,59.8157454892,3,2015_Jun_02_0948,15,
200,w,200,,,,,,,,,,,,,,,,,0,0,0,0,None,2,3,11,0,0,0,0,0,None,,,127.322150946,w,1,0.350471973419,None,0.51144695282,0.00098180770874,130.319037914,,,,,,,,,,,,,,,,,,,,127.320688963,127.320839882,0.53,LearningTask,,,59.8157454892,3,2015_Jun_02_0948,15,
200,w,200,,,,,,,,,,,,,,,,,0,0,0,0,None,2,3,11,0,,,,,,,,,,,,,,,,,,,,,,,,,,,,,,,,,,,,,,LearningTask,,,59.8157454892,3,2015_Jun_02_0948,15,
-200,a,-200,,,,,,,,,,,,,,,,,0,0,0,0,None,3,0,12,3,0,0,0,0,None,,,130.614149094,None,0,,None,0.504853010178,0.000936031341553,133.605148077,,,,,,,,,,,,,,,,,,,,130.612765074,130.612931013,4.2,LearningTask,,,59.8157454892,3,2015_Jun_02_0948,15,
-200,a,-200,,,,,,,,,,,,,,,,,0,0,0,0,None,3,0,12,3,1,0,1,0,None,,,133.605751991,a,1,0.384299993515,None,0.516013145447,0.00113105773926,136.607599974,,,,,,,,,,,,,,,,,,,,,,4.17,LearningTask,,,59.8157454892,3,2015_Jun_02_0948,15,
-200,a,-200,,,,,,,,,,,,,,,,,0,0,0,0,None,3,0,12,3,,,,,,,,,,,,,,,,,,,,,,,,,,,,,,,,,,,,,,LearningTask,,,59.8157454892,3,2015_Jun_02_0948,15,
200,s,-200,,,,,,,,,,,,,,,,,0,0,0,0,None,3,1,13,2,0,0,0,0,None,,,136.939831972,s,1,0.334294080734,None,0.501394033432,0.00107502937317,139.943518877,,,,,,,,,,,,,,,,,,,,136.9385221,136.938702106,2.17,LearningTask,,,59.8157454892,3,2015_Jun_02_0948,15,
200,s,-200,,,,,,,,,,,,,,,,,0,0,0,0,None,3,1,13,2,,,,,,,,,,,,,,,,,,,,,,,,,,,,,,,,,,,,,,LearningTask,,,59.8157454892,3,2015_Jun_02_0948,15,
-200,q,200,,,,,,,,,,,,,,,,,0,0,0,0,None,3,2,14,1,0,0,0,0,None,,,140.262638092,q,1,0.384109973907,None,0.514487981796,0.00107502937317,143.263026953,,,,,,,,,,,,,,,,,,,,140.261214018,140.261389971,0.38,LearningTask,,,59.8157454892,3,2015_Jun_02_0948,15,
-200,q,200,,,,,,,,,,,,,,,,,0,0,0,0,None,3,2,14,1,,,,,,,,,,,,,,,,,,,,,,,,,,,,,,,,,,,,,,LearningTask,,,59.8157454892,3,2015_Jun_02_0948,15,
-200,a,-200,,,,,,,,,,,,,,,,,0,0,0,0,None,3,3,15,3,0,0,0,0,None,,,143.596584082,a,1,0.384146928787,None,0.516586065292,0.000926971435547,146.59926796,,,,,,,,,,,,,,,,,,,,143.595036983,143.595215082,0.93,LearningTask,,,59.8157454892,3,2015_Jun_02_0948,15,
-200,a,-200,,,,,,,,,,,,,,,,,0,0,0,0,None,3,3,15,3,,,,,,,,,,,,,,,,,,,,,,,,,,,,,,,,,,,,,,LearningTask,,,59.8157454892,3,2015_Jun_02_0948,15,
-200,q,200,,,,,,,,,,,,,,,,,0,0,0,0,None,4,0,16,1,0,0,0,0,None,,,146.931500912,a,0,0.367712020874,None,0.500868082047,0.000961065292358,149.934748888,,,,,,,,,,,,,,,,,,,,146.930063009,146.930259943,2.19,LearningTask,,,59.8157454892,3,2015_Jun_02_0948,15,
-200,q,200,,,,,,,,,,,,,,,,,0,0,0,0,None,4,0,16,1,1,0,1,0,None,,,149.93533206,q,1,0.334095954895,None,0.515980005264,0.00124311447144,152.937186003,,,,,,,,,,,,,,,,,,,,,,1.83,LearningTask,,,59.8157454892,3,2015_Jun_02_0948,15,
-200,q,200,,,,,,,,,,,,,,,,,0,0,0,0,None,4,0,16,1,,,,,,,,,,,,,,,,,,,,,,,,,,,,,,,,,,,,,,LearningTask,,,59.8157454892,3,2015_Jun_02_0948,15,
-200,q,200,,,,,,,,,,,,,,,,,0,0,0,0,None,4,1,17,1,0,0,0,0,None,,,153.323196888,q,1,0.433722019196,None,0.514447212219,0.00123310089111,156.322930098,,,,,,,,,,,,,,,,,,,,153.321793079,153.321973085,1.15,LearningTask,,,59.8157454892,3,2015_Jun_02_0948,15,
-200,q,200,,,,,,,,,,,,,,,,,0,0,0,0,None,4,1,17,1,,,,,,,,,,,,,,,,,,,,,,,,,,,,,,,,,,,,,,LearningTask,,,59.8157454892,3,2015_Jun_02_0948,15,
-200,a,-200,,,,,,,,,,,,,,,,,0,0,0,0,None,4,2,18,3,0,0,0,0,None,,,156.684221029,a,1,0.401457071304,None,0.505525112152,0.00100111961365,159.675873995,,,,,,,,,,,,,,,,,,,,156.682739019,156.682910919,1.05,LearningTask,,,59.8157454892,3,2015_Jun_02_0948,15,
-200,a,-200,,,,,,,,,,,,,,,,,0,0,0,0,None,4,2,18,3,,,,,,,,,,,,,,,,,,,,,,,,,,,,,,,,,,,,,,LearningTask,,,59.8157454892,3,2015_Jun_02_0948,15,
200,s,-200,,,,,,,,,,,,,,,,,0,0,0,0,None,4,3,19,2,0,0,0,0,None,,,160.027644873,s,1,0.350817918777,None,0.515321016312,0.000901937484741,163.028661013,,,,,,,,,,,,,,,,,,,,160.026243925,160.026417017,1.01,LearningTask,,,59.8157454892,3,2015_Jun_02_0948,15,
200,s,-200,,,,,,,,,,,,,,,,,0,0,0,0,None,4,3,19,2,,,,,,,,,,,,,,,,,,,,,,,,,,,,,,,,,,,,,,LearningTask,,,59.8157454892,3,2015_Jun_02_0948,15,
200,w,200,,,,,,,,,,,,,,,,,0,0,0,0,None,5,0,20,0,0,0,0,0,None,,,163.406909943,w,1,0.317523002625,None,0.505174160004,0.000962972640991,166.398010015,,,,,,,,,,,,,,,,,,,,163.405375957,163.405549049,3.75,LearningTask,,,59.8157454892,3,2015_Jun_02_0948,15,
200,w,200,,,,,,,,,,,,,,,,,0,0,0,0,None,5,0,20,0,,,,,,,,,,,,,,,,,,,,,,,,,,,,,,,,,,,,,,LearningTask,,,59.8157454892,3,2015_Jun_02_0948,15,
200,s,-200,,,,,,,,,,,,,,,,,0,0,0,0,None,5,1,21,2,0,0,0,0,None,,,166.80548811,s,1,0.38433098793,None,0.509407043457,0.00096607208252,169.800796986,,,,,,,,,,,,,,,,,,,,166.803843021,166.804023027,0.91,LearningTask,,,59.8157454892,3,2015_Jun_02_0948,15,
200,s,-200,,,,,,,,,,,,,,,,,0,0,0,0,None,5,1,21,2,,,,,,,,,,,,,,,,,,,,,,,,,,,,,,,,,,,,,,LearningTask,,,59.8157454892,3,2015_Jun_02_0948,15,
200,s,-200,,,,,,,,,,,,,,,,,0,0,0,0,None,5,2,22,2,0,0,0,0,None,,,170.197134972,s,1,0.43412399292,None,0.503918170929,0.00111722946167,173.186804056,,,,,,,,,,,,,,,,,,,,170.195105076,170.19529891,1.16,LearningTask,,,59.8157454892,3,2015_Jun_02_0948,15,
200,s,-200,,,,,,,,,,,,,,,,,0,0,0,0,None,5,2,22,2,,,,,,,,,,,,,,,,,,,,,,,,,,,,,,,,,,,,,,LearningTask,,,59.8157454892,3,2015_Jun_02_0948,15,
-200,a,-200,,,,,,,,,,,,,,,,,0,0,0,0,None,5,3,23,3,0,0,0,0,None,,,173.591531038,a,1,0.400921106339,None,0.512022018433,0.00108790397644,176.589277983,,,,,,,,,,,,,,,,,,,,173.589957952,173.590136051,0.59,LearningTask,,,59.8157454892,3,2015_Jun_02_0948,15,
-200,a,-200,,,,,,,,,,,,,,,,,0,0,0,0,None,5,3,23,3,,,,,,,,,,,,,,,,,,,,,,,,,,,,,,,,,,,,,,LearningTask,,,59.8157454892,3,2015_Jun_02_0948,15,
200,w,200,,,,,,,,,,,,,,,,,0,0,0,0,None,6,0,24,0,0,0,0,0,None,,,177.004086971,w,1,0.367579936981,None,0.502180814743,0.000985860824585,180.008712053,,,,,,,,,,,,,,,,,,,,177.002635002,177.002815962,3.78,LearningTask,,,59.8157454892,3,2015_Jun_02_0948,15,
200,w,200,,,,,,,,,,,,,,,,,0,0,0,0,None,6,0,24,0,,,,,,,,,,,,,,,,,,,,,,,,,,,,,,,,,,,,,,LearningTask,,,59.8157454892,3,2015_Jun_02_0948,15,
-200,q,200,,,,,,,,,,,,,,,,,0,0,0,0,None,6,1,25,1,0,0,0,0,None,,,180.485532999,q,1,0.417351007462,None,0.506587982178,0.000940084457397,183.478126049,,,,,,,,,,,,,,,,,,,,180.483792067,180.483974934,0.32,LearningTask,,,59.8157454892,3,2015_Jun_02_0948,15,
-200,q,200,,,,,,,,,,,,,,,,,0,0,0,0,None,6,1,25,1,,,,,,,,,,,,,,,,,,,,,,,,,,,,,,,,,,,,,,LearningTask,,,59.8157454892,3,2015_Jun_02_0948,15,
-200,q,200,,,,,,,,,,,,,,,,,0,0,0,0,None,6,2,26,1,0,0,0,0,None,,,183.895313025,q,1,0.400849103928,None,0.516504049301,0.000916957855225,186.89753294,,,,,,,,,,,,,,,,,,,,183.893918991,183.894090891,2.08,LearningTask,,,59.8157454892,3,2015_Jun_02_0948,15,
-200,q,200,,,,,,,,,,,,,,,,,0,0,0,0,None,6,2,26,1,,,,,,,,,,,,,,,,,,,,,,,,,,,,,,,,,,,,,,LearningTask,,,59.8157454892,3,2015_Jun_02_0948,15,
200,w,200,,,,,,,,,,,,,,,,,0,0,0,0,None,6,3,27,0,0,0,0,0,None,,,187.367973089,w,1,0.384485006332,None,0.513224840164,0.00110197067261,190.366988897,,,,,,,,,,,,,,,,,,,,187.366488934,187.366647005,3.9,LearningTask,,,59.8157454892,3,2015_Jun_02_0948,15,
200,w,200,,,,,,,,,,,,,,,,,0,0,0,0,None,6,3,27,0,,,,,,,,,,,,,,,,,,,,,,,,,,,,,,,,,,,,,,LearningTask,,,59.8157454892,3,2015_Jun_02_0948,15,
-200,q,200,,,,,,,,,,,,,,,,,0,0,0,0,None,7,0,28,1,0,0,0,0,None,,,190.802381039,q,1,0.350832939148,None,0.514748811722,0.00100183486938,193.803009033,,,,,,,,,,,,,,,,,,,,190.800981045,190.801172972,1.21,LearningTask,,,59.8157454892,3,2015_Jun_02_0948,15,
-200,q,200,,,,,,,,,,,,,,,,,0,0,0,0,None,7,0,28,1,,,,,,,,,,,,,,,,,,,,,,,,,,,,,,,,,,,,,,LearningTask,,,59.8157454892,3,2015_Jun_02_0948,15,
-200,q,200,,,,,,,,,,,,,,,,,0,0,0,0,None,7,1,29,1,0,0,0,0,None,,,194.26435709,q,1,0.400919914246,None,0.505651950836,0.00105690956116,197.255843878,,,,,,,,,,,,,,,,,,,,194.262950897,194.263113976,0.84,LearningTask,,,59.8157454892,3,2015_Jun_02_0948,15,
-200,q,200,,,,,,,,,,,,,,,,,0,0,0,0,None,7,1,29,1,,,,,,,,,,,,,,,,,,,,,,,,,,,,,,,,,,,,,,LearningTask,,,59.8157454892,3,2015_Jun_02_0948,15,
200,w,200,,,,,,,,,,,,,,,,,0,0,0,0,None,7,2,30,0,0,0,0,0,None,,,197.742667913,w,1,0.33407497406,None,0.513454914093,0.000926971435547,200.741858006,,,,,,,,,,,,,,,,,,,,197.741242886,197.741410017,2.07,LearningTask,,,59.8157454892,3,2015_Jun_02_0948,15,
200,w,200,,,,,,,,,,,,,,,,,0,0,0,0,None,7,2,30,0,,,,,,,,,,,,,,,,,,,,,,,,,,,,,,,,,,,,,,LearningTask,,,59.8157454892,3,2015_Jun_02_0948,15,
200,s,-200,,,,,,,,,,,,,,,,,0,0,0,0,None,7,3,31,2,0,0,0,0,None,,,201.205327034,s,1,0.384206056595,None,0.503419876099,0.00109195709229,204.194854975,,,,,,,,,,,,,,,,,,,,201.203708887,201.203875065,0.27,LearningTask,,,59.8157454892,3,2015_Jun_02_0948,15,
200,s,-200,,,,,,,,,,,,,,,,,0,0,0,0,None,7,3,31,2,,,,,,,,,,,,,,,,,,,,,,,,,,,,,,,,,,,,,,LearningTask,,,59.8157454892,3,2015_Jun_02_0948,15,
-200,q,200,,,,,,,,,,,,,,,,,0,0,0,0,None,8,0,32,1,0,0,0,0,None,,,204.64537406,q,1,0.451159000397,None,0.516095876694,0.00091290473938,207.647144079,,,,,,,,,,,,,,,,,,,,204.644002914,204.64415288,2.0,LearningTask,,,59.8157454892,3,2015_Jun_02_0948,15,
-200,q,200,,,,,,,,,,,,,,,,,0,0,0,0,None,8,0,32,1,,,,,,,,,,,,,,,,,,,,,,,,,,,,,,,,,,,,,,LearningTask,,,59.8157454892,3,2015_Jun_02_0948,15,
-200,a,-200,,,,,,,,,,,,,,,,,0,0,0,0,None,8,1,33,3,0,0,0,0,None,,,208.189213991,a,1,0.401047229767,None,0.50843000412,0.00118207931519,211.183701038,,,,,,,,,,,,,,,,,,,,208.187540054,208.187716961,4.13,LearningTask,,,59.8157454892,3,2015_Jun_02_0948,15,
-200,a,-200,,,,,,,,,,,,,,,,,0,0,0,0,None,8,1,33,3,,,,,,,,,,,,,,,,,,,,,,,,,,,,,,,,,,,,,,LearningTask,,,59.8157454892,3,2015_Jun_02_0948,15,
200,w,200,,,,,,,,,,,,,,,,,0,0,0,0,None,8,2,34,0,0,0,0,0,None,,,211.683978081,w,1,0.417606830597,None,0.516597986221,0.000922918319702,214.686147928,,,,,,,,,,,,,,,,,,,,211.682561874,211.682743073,4.02,LearningTask,,,59.8157454892,3,2015_Jun_02_0948,15,
200,w,200,,,,,,,,,,,,,,,,,0,0,0,0,None,8,2,34,0,,,,,,,,,,,,,,,,,,,,,,,,,,,,,,,,,,,,,,LearningTask,,,59.8157454892,3,2015_Jun_02_0948,15,
200,w,200,,,,,,,,,,,,,,,,,0,0,0,0,None,8,3,35,0,0,0,0,0,None,,,215.202559948,w,1,0.434507846832,None,0.500756978989,0.000933885574341,218.20599699,,,,,,,,,,,,,,,,,,,,215.20106101,215.201258898,3.83,LearningTask,,,59.8157454892,3,2015_Jun_02_0948,15,
200,w,200,,,,,,,,,,,,,,,,,0,0,0,0,None,8,3,35,0,,,,,,,,,,,,,,,,,,,,,,,,,,,,,,,,,,,,,,LearningTask,,,59.8157454892,3,2015_Jun_02_0948,15,
200,w,200,,,,,,,,,,,,,,,,,0,0,0,0,None,9,0,36,0,0,0,0,0,None,,,218.779233932,w,1,0.334095001221,None,0.510344028473,0.000941038131714,221.775449991,,,,,,,,,,,,,,,,,,,,218.777764082,218.777937889,0.87,LearningTask,,,59.8157454892,3,2015_Jun_02_0948,15,
200,w,200,,,,,,,,,,,,,,,,,0,0,0,0,None,9,0,36,0,,,,,,,,,,,,,,,,,,,,,,,,,,,,,,,,,,,,,,LearningTask,,,59.8157454892,3,2015_Jun_02_0948,15,
200,w,200,,,,,,,,,,,,,,,,,0,0,0,0,None,9,1,37,0,0,0,0,0,None,,,222.292834044,w,1,0.351302146912,None,0.516130924225,0.000933885574341,225.294833899,,,,,,,,,,,,,,,,,,,,222.291416883,222.291615009,0.36,LearningTask,,,59.8157454892,3,2015_Jun_02_0948,15,
200,w,200,,,,,,,,,,,,,,,,,0,0,0,0,None,9,1,37,0,,,,,,,,,,,,,,,,,,,,,,,,,,,,,,,,,,,,,,LearningTask,,,59.8157454892,3,2015_Jun_02_0948,15,
-200,a,-200,,,,,,,,,,,,,,,,,0,0,0,0,None,9,2,38,3,0,0,0,0,None,,,225.827845097,a,1,0.367558002472,None,0.50048995018,0.000945806503296,228.831003904,,,,,,,,,,,,,,,,,,,,225.826365948,225.826544046,1.85,LearningTask,,,59.8157454892,3,2015_Jun_02_0948,15,
-200,a,-200,,,,,,,,,,,,,,,,,0,0,0,0,None,9,2,38,3,,,,,,,,,,,,,,,,,,,,,,,,,,,,,,,,,,,,,,LearningTask,,,59.8157454892,3,2015_Jun_02_0948,15,
-200,a,-200,,,,,,,,,,,,,,,,,0,0,0,0,None,9,3,39,3,0,0,0,0,None,,,229.405102968,a,1,0.384454011917,None,0.509520053864,0.000897169113159,232.39984107,,,,,,,,,,,,,,,,,,,,229.403735876,229.403897047,1.14,LearningTask,,,59.8157454892,3,2015_Jun_02_0948,15,
-200,a,-200,,,,,,,,,,,,,,,,,0,0,0,0,None,9,3,39,3,,,,,,,,,,,,,,,,,,,,,,,,,,,,,,,,,,,,,,LearningTask,,,59.8157454892,3,2015_Jun_02_0948,15,
-200,q,200,,,,,,,,,,,,,,,,,0,0,0,0,None,10,0,40,1,0,0,0,0,None,,,232.953073025,q,1,0.384253025055,None,0.514286994934,0.000922918319702,235.953226089,,,,,,,,,,,,,,,,,,,,232.951740026,232.951911926,3.96,LearningTask,,,59.8157454892,3,2015_Jun_02_0948,15,
-200,q,200,,,,,,,,,,,,,,,,,0,0,0,0,None,10,0,40,1,,,,,,,,,,,,,,,,,,,,,,,,,,,,,,,,,,,,,,LearningTask,,,59.8157454892,3,2015_Jun_02_0948,15,
-200,q,200,,,,,,,,,,,,,,,,,0,0,0,0,None,10,1,41,1,0,0,0,0,None,,,236.576124907,q,1,0.384191036224,None,0.510900020599,0.000998973846436,239.572566986,,,,,,,,,,,,,,,,,,,,236.574688911,236.574886084,1.91,LearningTask,,,59.8157454892,3,2015_Jun_02_0948,15,
-200,q,200,,,,,,,,,,,,,,,,,0,0,0,0,None,10,1,41,1,,,,,,,,,,,,,,,,,,,,,,,,,,,,,,,,,,,,,,LearningTask,,,59.8157454892,3,2015_Jun_02_0948,15,
200,w,200,,,,,,,,,,,,,,,,,0,0,0,0,None,10,2,42,0,0,0,0,0,None,,,240.146692991,w,1,0.367743015289,None,0.509719848633,0.00110602378845,243.142301083,,,,,,,,,,,,,,,,,,,,240.145152092,240.145317078,4.21,LearningTask,,,59.8157454892,3,2015_Jun_02_0948,15,
200,w,200,,,,,,,,,,,,,,,,,0,0,0,0,None,10,2,42,0,,,,,,,,,,,,,,,,,,,,,,,,,,,,,,,,,,,,,,LearningTask,,,59.8157454892,3,2015_Jun_02_0948,15,
-200,q,200,,,,,,,,,,,,,,,,,0,0,0,0,None,10,3,43,1,0,0,0,0,None,,,243.771833897,q,1,0.351024866104,None,0.504297971725,0.00108194351196,246.761820078,,,,,,,,,,,,,,,,,,,,243.770428896,243.770603895,4.11,LearningTask,,,59.8157454892,3,2015_Jun_02_0948,15,
-200,q,200,,,,,,,,,,,,,,,,,0,0,0,0,None,10,3,43,1,,,,,,,,,,,,,,,,,,,,,,,,,,,,,,,,,,,,,,LearningTask,,,59.8157454892,3,2015_Jun_02_0948,15,
-200,a,-200,,,,,,,,,,,,,,,,,0,0,0,0,None,11,0,44,3,0,0,0,0,None,,,247.316323042,None,0,,None,0.512532949448,0.00096583366394,250.314728022,,,,,,,,,,,,,,,,,,,,247.314842939,247.315000057,4.18,LearningTask,,,59.8157454892,3,2015_Jun_02_0948,15,
-200,a,-200,,,,,,,,,,,,,,,,,0,0,0,0,None,11,0,44,3,1,0,1,0,None,,,250.315582037,None,0,,None,0.515535116196,0.00130796432495,253.316996098,,,,,,,,,,,,,,,,,,,,,,3.95,LearningTask,,,59.8157454892,3,2015_Jun_02_0948,15,
-200,a,-200,,,,,,,,,,,,,,,,,0,0,0,0,None,11,0,44,3,2,0,2,0,None,,,253.317599058,None,0,,None,0.51598906517,0.00126004219055,256.319020987,,,,,,,,,,,,,,,,,,,,,,3.99,LearningTask,,,59.8157454892,3,2015_Jun_02_0948,15,
-200,a,-200,,,,,,,,,,,,,,,,,0,0,0,0,None,11,0,44,3,3,0,3,0,None,,,256.319617033,None,0,,None,0.515908956528,0.00120806694031,259.321731091,,,,,,,,,,,,,,,,,,,,,,4.07,LearningTask,,,59.8157454892,3,2015_Jun_02_0948,15,
-200,a,-200,,,,,,,,,,,,,,,,,0,0,0,0,None,11,0,44,3,4,0,4,0,None,,,259.322323084,None,0,,None,0.515944004059,0.00123381614685,262.324109077,,,,,,,,,,,,,,,,,,,,,,4.14,LearningTask,,,59.8157454892,3,2015_Jun_02_0948,15,
-200,a,-200,,,,,,,,,,,,,,,,,0,0,0,0,None,11,0,44,3,,,,,,,,,,,,,,,,,,,,,,,,,,,,,,,,,,,,,,LearningTask,,,59.8157454892,3,2015_Jun_02_0948,15,
200,w,200,,,,,,,,,,,,,,,,,0,0,0,0,None,11,1,45,0,0,0,0,0,None,,,262.893244028,None,0,,None,0.514666795731,0.000919818878174,265.893721104,,,,,,,,,,,,,,,,,,,,262.891835928,262.89201498,1.97,LearningTask,,,59.8157454892,3,2015_Jun_02_0948,15,
200,w,200,,,,,,,,,,,,,,,,,0,0,0,0,None,11,1,45,0,1,0,1,0,None,,,265.894483089,None,0,,None,0.515829086304,0.00146508216858,268.896337032,,,,,,,,,,,,,,,,,,,,,,1.78,LearningTask,,,59.8157454892,3,2015_Jun_02_0948,15,
200,w,200,,,,,,,,,,,,,,,,,0,0,0,0,None,11,1,45,0,2,0,2,0,None,,,268.897011042,None,0,,None,0.515691041946,0.00159907341003,271.898601055,,,,,,,,,,,,,,,,,,,,,,1.88,LearningTask,,,59.8157454892,3,2015_Jun_02_0948,15,
200,w,200,,,,,,,,,,,,,,,,,0,0,0,0,None,11,1,45,0,3,0,3,0,None,,,271.899302006,None,0,,None,0.515799999237,0.00159001350403,274.900780916,,,,,,,,,,,,,,,,,,,,,,2.24,LearningTask,,,59.8157454892,3,2015_Jun_02_0948,15,
200,w,200,,,,,,,,,,,,,,,,,0,0,0,0,None,11,1,45,0,4,0,4,0,None,,,274.901355982,None,0,,None,0.515923976898,0.00123906135559,277.903281927,,,,,,,,,,,,,,,,,,,,,,2.1,LearningTask,,,59.8157454892,3,2015_Jun_02_0948,15,
200,w,200,,,,,,,,,,,,,,,,,0,0,0,0,None,11,1,45,0,,,,,,,,,,,,,,,,,,,,,,,,,,,,,,,,,,,,,,LearningTask,,,59.8157454892,3,2015_Jun_02_0948,15,
200,s,-200,,,,,,,,,,,,,,,,,0,0,0,0,None,11,2,46,2,0,0,0,0,None,,,278.552793026,None,0,,None,0.500943899155,0.000959873199463,281.555854082,,,,,,,,,,,,,,,,,,,,278.551361084,278.551524878,0.86,LearningTask,,,59.8157454892,3,2015_Jun_02_0948,15,
200,s,-200,,,,,,,,,,,,,,,,,0,0,0,0,None,11,2,46,2,1,0,1,0,None,,,281.55645895,None,0,,None,0.515808820724,0.00125288963318,284.558553934,,,,,,,,,,,,,,,,,,,,,,0.98,LearningTask,,,59.8157454892,3,2015_Jun_02_0948,15,
200,s,-200,,,,,,,,,,,,,,,,,0,0,0,0,None,11,2,46,2,2,0,2,0,None,,,284.559391022,None,0,,None,0.515506029129,0.00150299072266,287.56110096,,,,,,,,,,,,,,,,,,,,,,1.06,LearningTask,,,59.8157454892,3,2015_Jun_02_0948,15,
200,s,-200,,,,,,,,,,,,,,,,,0,0,0,0,None,11,2,46,2,3,0,3,0,None,,,287.561930895,None,0,,None,0.515419006348,0.00170683860779,290.563181877,,,,,,,,,,,,,,,,,,,,,,1.02,LearningTask,,,59.8157454892,3,2015_Jun_02_0948,15,
200,s,-200,,,,,,,,,,,,,,,,,0,0,0,0,None,11,2,46,2,4,0,4,0,None,,,290.563797951,None,0,,None,0.516008138657,0.00145101547241,293.565562963,,,,,,,,,,,,,,,,,,,,,,1.01,LearningTask,,,59.8157454892,3,2015_Jun_02_0948,15,
200,s,-200,,,,,,,,,,,,,,,,,0,0,0,0,None,11,2,46,2,,,,,,,,,,,,,,,,,,,,,,,,,,,,,,,,,,,,,,LearningTask,,,59.8157454892,3,2015_Jun_02_0948,15,
200,s,-200,,,,,,,,,,,,,,,,,0,0,0,0,None,11,3,47,2,0,0,0,0,None,,,294.19572401,None,0,,None,0.503719806671,0.00120878219604,297.185354948,,,,,,,,,,,,,,,,,,,,294.193881035,294.194120884,1.92,LearningTask,,,59.8157454892,3,2015_Jun_02_0948,15,
200,s,-200,,,,,,,,,,,,,,,,,0,0,0,0,None,11,3,47,2,1,0,1,0,None,,,297.185960054,None,0,,None,0.515769958496,0.0012218952179,300.187690973,,,,,,,,,,,,,,,,,,,,,,2.07,LearningTask,,,59.8157454892,3,2015_Jun_02_0948,15,
200,s,-200,,,,,,,,,,,,,,,,,0,0,0,0,None,11,3,47,2,2,0,2,0,None,,,300.188289881,None,0,,None,0.515882968903,0.00124287605286,303.190308094,,,,,,,,,,,,,,,,,,,,,,1.91,LearningTask,,,59.8157454892,3,2015_Jun_02_0948,15,
200,s,-200,,,,,,,,,,,,,,,,,0,0,0,0,None,11,3,47,2,3,0,3,0,None,,,303.190816879,None,0,,None,0.515748977661,0.00123906135559,306.192446947,,,,,,,,,,,,,,,,,,,,,,2.16,LearningTask,,,59.8157454892,3,2015_Jun_02_0948,15,
200,s,-200,,,,,,,,,,,,,,,,,0,0,0,0,None,11,3,47,2,4,0,4,0,None,,,306.193093061,None,0,,None,0.515628099442,0.00144410133362,309.194731951,,,,,,,,,,,,,,,,,,,,,,1.78,LearningTask,,,59.8157454892,3,2015_Jun_02_0948,15,
200,s,-200,,,,,,,,,,,,,,,,,0,0,0,0,None,11,3,47,2,,,,,,,,,,,,,,,,,,,,,,,,,,,,,,,,,,,,,,LearningTask,,,59.8157454892,3,2015_Jun_02_0948,15,
200,s,-200,,,,,,,,,,,,,,,,,0,0,0,0,None,12,0,48,2,0,0,0,0,None,,,309.834985971,None,0,,None,0.510228872299,0.000916004180908,312.831268072,,,,,,,,,,,,,,,,,,,,309.833683014,309.833839893,0.42,LearningTask,,,59.8157454892,3,2015_Jun_02_0948,15,
200,s,-200,,,,,,,,,,,,,,,,,0,0,0,0,None,12,0,48,2,1,0,1,0,None,,,312.831937075,None,0,,None,0.515559911728,0.00137090682983,315.83336401,,,,,,,,,,,,,,,,,,,,,,0.62,LearningTask,,,59.8157454892,3,2015_Jun_02_0948,15,
200,s,-200,,,,,,,,,,,,,,,,,0,0,0,0,None,12,0,48,2,2,0,2,0,None,,,315.834213018,None,0,,None,0.515610933304,0.00173187255859,318.835934877,,,,,,,,,,,,,,,,,,,,,,0.31,LearningTask,,,59.8157454892,3,2015_Jun_02_0948,15,
200,s,-200,,,,,,,,,,,,,,,,,0,0,0,0,None,12,0,48,2,3,0,3,0,None,,,318.836829901,None,0,,None,0.515527963638,0.00132203102112,321.838129044,,,,,,,,,,,,,,,,,,,,,,0.75,LearningTask,,,59.8157454892,3,2015_Jun_02_0948,15,
200,s,-200,,,,,,,,,,,,,,,,,0,0,0,0,None,12,0,48,2,4,0,4,0,None,,,321.838706017,None,0,,None,0.515995979309,0.00113296508789,324.840414047,,,,,,,,,,,,,,,,,,,,,,0.29,LearningTask,,,59.8157454892,3,2015_Jun_02_0948,15,
200,s,-200,,,,,,,,,,,,,,,,,0,0,0,0,None,12,0,48,2,,,,,,,,,,,,,,,,,,,,,,,,,,,,,,,,,,,,,,LearningTask,,,59.8157454892,3,2015_Jun_02_0948,15,
-200,q,200,,,,,,,,,,,,,,,,,0,0,0,0,None,12,1,49,1,0,0,0,0,None,,,325.480797052,None,0,,None,0.510083198547,0.000910043716431,328.476989031,,,,,,,,,,,,,,,,,,,,325.479288101,325.479461908,1.24,LearningTask,,,59.8157454892,3,2015_Jun_02_0948,15,
-200,q,200,,,,,,,,,,,,,,,,,0,0,0,0,None,12,1,49,1,1,0,1,0,None,,,328.477655888,None,0,,None,0.515617847443,0.00135588645935,331.478959084,,,,,,,,,,,,,,,,,,,,,,0.83,LearningTask,,,59.8157454892,3,2015_Jun_02_0948,15,
-200,q,200,,,,,,,,,,,,,,,,,0,0,0,0,None,12,1,49,1,2,0,2,0,None,,,331.479551077,None,0,,None,0.515823841095,0.00122690200806,334.481645107,,,,,,,,,,,,,,,,,,,,,,0.94,LearningTask,,,59.8157454892,3,2015_Jun_02_0948,15,
-200,q,200,,,,,,,,,,,,,,,,,0,0,0,0,None,12,1,49,1,3,0,3,0,None,,,334.482317924,None,0,,None,0.515736818314,0.00154590606689,337.484009981,,,,,,,,,,,,,,,,,,,,,,1.02,LearningTask,,,59.8157454892,3,2015_Jun_02_0948,15,
-200,q,200,,,,,,,,,,,,,,,,,0,0,0,0,None,12,1,49,1,4,0,4,0,None,,,337.484598875,None,0,,None,0.515923976898,0.001060962677,340.486210108,,,,,,,,,,,,,,,,,,,,,,0.94,LearningTask,,,59.8157454892,3,2015_Jun_02_0948,15,
-200,q,200,,,,,,,,,,,,,,,,,0,0,0,0,None,12,1,49,1,,,,,,,,,,,,,,,,,,,,,,,,,,,,,,,,,,,,,,LearningTask,,,59.8157454892,3,2015_Jun_02_0948,15,
200,w,200,,,,,,,,,,,,,,,,,0,0,0,0,None,12,2,50,0,0,0,0,0,None,,,341.179616928,None,0,,None,0.507236003876,0.000902891159058,344.172605991,,,,,,,,,,,,,,,,,,,,341.1782341,341.178418875,0.62,LearningTask,,,59.8157454892,3,2015_Jun_02_0948,15,
200,w,200,,,,,,,,,,,,,,,,,0,0,0,0,None,12,2,50,0,1,0,1,0,None,,,344.173130035,None,0,,None,0.516129970551,0.00105094909668,347.174987078,,,,,,,,,,,,,,,,,,,,,,0.65,LearningTask,,,59.8157454892,3,2015_Jun_02_0948,15,
200,w,200,,,,,,,,,,,,,,,,,0,0,0,0,None,12,2,50,0,2,0,2,0,None,,,347.175592899,None,0,,None,0.515892028809,0.00128388404846,350.177386999,,,,,,,,,,,,,,,,,,,,,,0.53,LearningTask,,,59.8157454892,3,2015_Jun_02_0948,15,
200,w,200,,,,,,,,,,,,,,,,,0,0,0,0,None,12,2,50,0,3,0,3,0,None,,,350.177884102,None,0,,None,0.516023159027,0.000997066497803,353.17967701,,,,,,,,,,,,,,,,,,,,,,0.42,LearningTask,,,59.8157454892,3,2015_Jun_02_0948,15,
200,w,200,,,,,,,,,,,,,,,,,0,0,0,0,None,12,2,50,0,4,0,4,0,None,,,353.180291891,None,0,,None,0.516039848328,0.00117087364197,356.182035923,,,,,,,,,,,,,,,,,,,,,,0.51,LearningTask,,,59.8157454892,3,2015_Jun_02_0948,15,
200,w,200,,,,,,,,,,,,,,,,,0,0,0,0,None,12,2,50,0,,,,,,,,,,,,,,,,,,,,,,,,,,,,,,,,,,,,,,LearningTask,,,59.8157454892,3,2015_Jun_02_0948,15,
200,w,200,,,,,,,,,,,,,,,,,0,0,0,0,None,12,3,51,0,0,0,0,0,None,,,356.811897039,None,0,,None,0.503649950027,0.00111603736877,359.801773071,,,,,,,,,,,,,,,,,,,,356.810276985,356.810473919,4.13,LearningTask,,,59.8157454892,3,2015_Jun_02_0948,15,
200,w,200,,,,,,,,,,,,,,,,,0,0,0,0,None,12,3,51,0,1,0,1,0,None,,,359.802360058,None,0,,None,0.515769004822,0.00157380104065,362.804032087,,,,,,,,,,,,,,,,,,,,,,3.85,LearningTask,,,59.8157454892,3,2015_Jun_02_0948,15,
200,w,200,,,,,,,,,,,,,,,,,0,0,0,0,None,12,3,51,0,2,0,2,0,None,,,362.804615974,None,0,,None,0.515876054764,0.00116109848022,365.806519985,,,,,,,,,,,,,,,,,,,,,,3.99,LearningTask,,,59.8157454892,3,2015_Jun_02_0948,15,
200,w,200,,,,,,,,,,,,,,,,,0,0,0,0,None,12,3,51,0,3,0,3,0,None,,,365.807101011,None,0,,None,0.515768051147,0.0015811920166,368.808862925,,,,,,,,,,,,,,,,,,,,,,4.21,LearningTask,,,59.8157454892,3,2015_Jun_02_0948,15,
200,w,200,,,,,,,,,,,,,,,,,0,0,0,0,None,12,3,51,0,4,0,4,0,None,,,368.809444904,None,0,,None,0.515907049179,0.00121808052063,371.811192036,,,,,,,,,,,,,,,,,,,,,,3.82,LearningTask,,,59.8157454892,3,2015_Jun_02_0948,15,
200,w,200,,,,,,,,,,,,,,,,,0,0,0,0,None,12,3,51,0,,,,,,,,,,,,,,,,,,,,,,,,,,,,,,,,,,,,,,LearningTask,,,59.8157454892,3,2015_Jun_02_0948,15,
-200,a,-200,,,,,,,,,,,,,,,,,0,0,0,0,None,13,0,52,3,0,0,0,0,None,,,372.510906935,None,0,,None,0.501015901566,0.0011157989502,375.514077902,,,,,,,,,,,,,,,,,,,,372.509309053,372.509505033,4.22,LearningTask,,,59.8157454892,3,2015_Jun_02_0948,15,
-200,a,-200,,,,,,,,,,,,,,,,,0,0,0,0,None,13,0,52,3,1,0,1,0,None,,,375.51452589,None,0,,None,0.516175031662,0.00115394592285,378.516740084,,,,,,,,,,,,,,,,,,,,,,3.99,LearningTask,,,59.8157454892,3,2015_Jun_02_0948,15,
-200,a,-200,,,,,,,,,,,,,,,,,0,0,0,0,None,13,0,52,3,2,0,2,0,None,,,378.517361879,None,0,,None,0.515661001205,0.00133991241455,381.518802881,,,,,,,,,,,,,,,,,,,,,,4.19,LearningTask,,,59.8157454892,3,2015_Jun_02_0948,15,
-200,a,-200,,,,,,,,,,,,,,,,,0,0,0,0,None,13,0,52,3,3,0,3,0,None,,,381.519424915,None,0,,None,0.515825033188,0.00124216079712,384.521414995,,,,,,,,,,,,,,,,,,,,,,4.06,LearningTask,,,59.8157454892,3,2015_Jun_02_0948,15,
-200,a,-200,,,,,,,,,,,,,,,,,0,0,0,0,None,13,0,52,3,4,0,4,0,None,,,384.522005081,None,0,,None,0.515762805939,0.00136590003967,387.52382803,,,,,,,,,,,,,,,,,,,,,,4.0,LearningTask,,,59.8157454892,3,2015_Jun_02_0948,15,
-200,a,-200,,,,,,,,,,,,,,,,,0,0,0,0,None,13,0,52,3,,,,,,,,,,,,,,,,,,,,,,,,,,,,,,,,,,,,,,LearningTask,,,59.8157454892,3,2015_Jun_02_0948,15,
200,w,200,,,,,,,,,,,,,,,,,0,0,0,0,None,13,1,53,0,0,0,0,0,None,,,388.179213047,None,0,,None,0.511724948883,0.00145792961121,391.176492929,,,,,,,,,,,,,,,,,,,,388.17779088,388.178013086,1.02,LearningTask,,,59.8157454892,3,2015_Jun_02_0948,15,
200,w,200,,,,,,,,,,,,,,,,,0,0,0,0,None,13,1,53,0,1,0,1,0,None,,,391.17698288,None,0,,None,0.516149044037,0.000990867614746,394.178992987,,,,,,,,,,,,,,,,,,,,,,0.91,LearningTask,,,59.8157454892,3,2015_Jun_02_0948,15,
200,w,200,,,,,,,,,,,,,,,,,0,0,0,0,None,13,1,53,0,2,0,2,0,None,,,394.1796,None,0,,None,0.516010046005,0.0013370513916,397.181490898,,,,,,,,,,,,,,,,,,,,,,0.75,LearningTask,,,59.8157454892,3,2015_Jun_02_0948,15,
200,w,200,,,,,,,,,,,,,,,,,0,0,0,0,None,13,1,53,0,3,0,3,0,None,,,397.182087898,None,0,,None,0.515861988068,0.00114297866821,400.184034109,,,,,,,,,,,,,,,,,,,,,,0.81,LearningTask,,,59.8157454892,3,2015_Jun_02_0948,15,
200,w,200,,,,,,,,,,,,,,,,,0,0,0,0,None,13,1,53,0,4,0,4,0,None,,,400.184639931,None,0,,None,0.515641927719,0.00157499313354,403.1864779,,,,,,,,,,,,,,,,,,,,,,1.15,LearningTask,,,59.8157454892,3,2015_Jun_02_0948,15,
200,w,200,,,,,,,,,,,,,,,,,0,0,0,0,None,13,1,53,0,,,,,,,,,,,,,,,,,,,,,,,,,,,,,,,,,,,,,,LearningTask,,,59.8157454892,3,2015_Jun_02_0948,15,
-200,a,-200,,,,,,,,,,,,,,,,,0,0,0,0,None,13,2,54,3,0,0,0,0,None,,,403.912357092,None,0,,None,0.50775718689,0.000956058502197,406.905906916,,,,,,,,,,,,,,,,,,,,403.91088891,403.911083937,1.94,LearningTask,,,59.8157454892,3,2015_Jun_02_0948,15,
-200,a,-200,,,,,,,,,,,,,,,,,0,0,0,0,None,13,2,54,3,1,0,1,0,None,,,406.906527042,None,0,,None,0.515480041504,0.00165009498596,409.908143997,,,,,,,,,,,,,,,,,,,,,,2.15,LearningTask,,,59.8157454892,3,2015_Jun_02_0948,15,
-200,a,-200,,,,,,,,,,,,,,,,,0,0,0,0,None,13,2,54,3,2,0,2,0,None,,,409.908776999,None,0,,None,0.515959024429,0.00121116638184,412.91053009,,,,,,,,,,,,,,,,,,,,,,1.8,LearningTask,,,59.8157454892,3,2015_Jun_02_0948,15,
-200,a,-200,,,,,,,,,,,,,,,,,0,0,0,0,None,13,2,54,3,3,0,3,0,None,,,412.910995007,None,0,,None,0.516175031662,0.00103211402893,415.912827015,,,,,,,,,,,,,,,,,,,,,,2.07,LearningTask,,,59.8157454892,3,2015_Jun_02_0948,15,
-200,a,-200,,,,,,,,,,,,,,,,,0,0,0,0,None,13,2,54,3,4,0,4,0,None,,,415.913417101,None,0,,None,0.516022205353,0.00128412246704,418.915365934,,,,,,,,,,,,,,,,,,,,,,2.02,LearningTask,,,59.8157454892,3,2015_Jun_02_0948,15,
-200,a,-200,,,,,,,,,,,,,,,,,0,0,0,0,None,13,2,54,3,,,,,,,,,,,,,,,,,,,,,,,,,,,,,,,,,,,,,,LearningTask,,,59.8157454892,3,2015_Jun_02_0948,15,
200,s,-200,,,,,,,,,,,,,,,,,0,0,0,0,None,13,3,55,2,0,0,0,0,None,,,419.59000802,None,0,,None,0.509229898453,0.000969886779785,422.584882975,,,,,,,,,,,,,,,,,,,,419.588530064,419.58872509,1.78,LearningTask,,,59.8157454892,3,2015_Jun_02_0948,15,
200,s,-200,,,,,,,,,,,,,,,,,0,0,0,0,None,13,3,55,2,1,0,1,0,None,,,422.585473061,None,0,,None,0.515967130661,0.00120902061462,425.587336063,,,,,,,,,,,,,,,,,,,,,,1.93,LearningTask,,,59.8157454892,3,2015_Jun_02_0948,15,
200,s,-200,,,,,,,,,,,,,,,,,0,0,0,0,None,13,3,55,2,2,0,2,0,None,,,425.588152885,None,0,,None,0.515725851059,0.00150299072266,428.589675903,,,,,,,,,,,,,,,,,,,,,,1.78,LearningTask,,,59.8157454892,3,2015_Jun_02_0948,15,
200,s,-200,,,,,,,,,,,,,,,,,0,0,0,0,None,13,3,55,2,3,0,3,0,None,,,428.590270042,None,0,,None,0.515894889832,0.00123882293701,431.591907024,,,,,,,,,,,,,,,,,,,,,,2.06,LearningTask,,,59.8157454892,3,2015_Jun_02_0948,15,
200,s,-200,,,,,,,,,,,,,,,,,0,0,0,0,None,13,3,55,2,4,0,4,0,None,,,431.592494965,None,0,,None,0.515894889832,0.00156593322754,434.594383001,,,,,,,,,,,,,,,,,,,,,,2.06,LearningTask,,,59.8157454892,3,2015_Jun_02_0948,15,
200,s,-200,,,,,,,,,,,,,,,,,0,0,0,0,None,13,3,55,2,,,,,,,,,,,,,,,,,,,,,,,,,,,,,,,,,,,,,,LearningTask,,,59.8157454892,3,2015_Jun_02_0948,15,
-200,a,-200,,,,,,,,,,,,,,,,,0,0,0,0,None,14,0,56,3,0,0,0,0,None,,,435.295271873,None,0,,None,0.516369104385,0.00104904174805,438.297556877,,,,,,,,,,,,,,,,,,,,435.293916941,435.294075012,3.92,LearningTask,,,59.8157454892,3,2015_Jun_02_0948,15,
-200,a,-200,,,,,,,,,,,,,,,,,0,0,0,0,None,14,0,56,3,1,0,1,0,None,,,438.298155069,None,0,,None,0.515854120255,0.00173807144165,441.299622059,,,,,,,,,,,,,,,,,,,,,,4.2,LearningTask,,,59.8157454892,3,2015_Jun_02_0948,15,
-200,a,-200,,,,,,,,,,,,,,,,,0,0,0,0,None,14,0,56,3,2,0,2,0,None,,,441.300209999,None,0,,None,0.516062021255,0.00120496749878,444.302042007,,,,,,,,,,,,,,,,,,,,,,4.12,LearningTask,,,59.8157454892,3,2015_Jun_02_0948,15,
-200,a,-200,,,,,,,,,,,,,,,,,0,0,0,0,None,14,0,56,3,3,0,3,0,None,,,444.302634001,None,0,,None,0.516125917435,0.00117993354797,447.304421902,,,,,,,,,,,,,,,,,,,,,,3.97,LearningTask,,,59.8157454892,3,2015_Jun_02_0948,15,
-200,a,-200,,,,,,,,,,,,,,,,,0,0,0,0,None,14,0,56,3,4,0,4,0,None,,,447.305006981,None,0,,None,0.516108989716,0.00151801109314,450.306905031,,,,,,,,,,,,,,,,,,,,,,4.16,LearningTask,,,59.8157454892,3,2015_Jun_02_0948,15,
-200,a,-200,,,,,,,,,,,,,,,,,0,0,0,0,None,14,0,56,3,,,,,,,,,,,,,,,,,,,,,,,,,,,,,,,,,,,,,,LearningTask,,,59.8157454892,3,2015_Jun_02_0948,15,
200,w,200,,,,,,,,,,,,,,,,,0,0,0,0,None,14,1,57,0,0,0,0,0,None,,,451.024411917,None,0,,None,0.516324996948,0.000962018966675,454.026479006,,,,,,,,,,,,,,,,,,,,451.023032904,451.023196936,0.76,LearningTask,,,59.8157454892,3,2015_Jun_02_0948,15,
200,w,200,,,,,,,,,,,,,,,,,0,0,0,0,None,14,1,57,0,1,0,1,0,None,,,454.027128935,None,0,,None,0.515985012054,0.00135087966919,457.028793097,,,,,,,,,,,,,,,,,,,,,,1.01,LearningTask,,,59.8157454892,3,2015_Jun_02_0948,15,
200,w,200,,,,,,,,,,,,,,,,,0,0,0,0,None,14,1,57,0,2,0,2,0,None,,,457.029520035,None,0,,None,0.515775918961,0.00132083892822,460.031204939,,,,,,,,,,,,,,,,,,,,,,1.11,LearningTask,,,59.8157454892,3,2015_Jun_02_0948,15,
200,w,200,,,,,,,,,,,,,,,,,0,0,0,0,None,14,1,57,0,3,0,3,0,None,,,460.031832933,None,0,,None,0.515954971313,0.00122785568237,463.033982992,,,,,,,,,,,,,,,,,,,,,,0.75,LearningTask,,,59.8157454892,3,2015_Jun_02_0948,15,
200,w,200,,,,,,,,,,,,,,,,,0,0,0,0,None,14,1,57,0,4,0,4,0,None,,,463.034651995,None,0,,None,0.515709877014,0.00160694122314,466.036258936,,,,,,,,,,,,,,,,,,,,,,1.03,LearningTask,,,59.8157454892,3,2015_Jun_02_0948,15,
200,w,200,,,,,,,,,,,,,,,,,0,0,0,0,None,14,1,57,0,,,,,,,,,,,,,,,,,,,,,,,,,,,,,,,,,,,,,,LearningTask,,,59.8157454892,3,2015_Jun_02_0948,15,
200,s,-200,,,,,,,,,,,,,,,,,0,0,0,0,None,14,2,58,2,0,0,0,0,None,,,466.738791943,None,0,,None,0.51451587677,0.00107002258301,469.739123106,,,,,,,,,,,,,,,,,,,,466.737384081,466.737543106,2.18,LearningTask,,,59.8157454892,3,2015_Jun_02_0948,15,
200,s,-200,,,,,,,,,,,,,,,,,0,0,0,0,None,14,2,58,2,1,0,1,0,None,,,469.739809036,None,0,,None,0.515851020813,0.00137710571289,472.741456985,,,,,,,,,,,,,,,,,,,,,,1.84,LearningTask,,,59.8157454892,3,2015_Jun_02_0948,15,
200,s,-200,,,,,,,,,,,,,,,,,0,0,0,0,None,14,2,58,2,2,0,2,0,None,,,472.742048979,None,0,,None,0.515927791595,0.00157189369202,475.743731976,,,,,,,,,,,,,,,,,,,,,,2.21,LearningTask,,,59.8157454892,3,2015_Jun_02_0948,15,
200,s,-200,,,,,,,,,,,,,,,,,0,0,0,0,None,14,2,58,2,3,0,3,0,None,,,475.744319916,None,0,,None,0.516232967377,0.00123906135559,478.746054888,,,,,,,,,,,,,,,,,,,,,,2.07,LearningTask,,,59.8157454892,3,2015_Jun_02_0948,15,
200,s,-200,,,,,,,,,,,,,,,,,0,0,0,0,None,14,2,58,2,4,0,4,0,None,,,478.746635914,None,0,,None,0.516128063202,0.00118803977966,481.748579025,,,,,,,,,,,,,,,,,,,,,,2.15,LearningTask,,,59.8157454892,3,2015_Jun_02_0948,15,
200,s,-200,,,,,,,,,,,,,,,,,0,0,0,0,None,14,2,58,2,,,,,,,,,,,,,,,,,,,,,,,,,,,,,,,,,,,,,,LearningTask,,,59.8157454892,3,2015_Jun_02_0948,15,
