xPos,corrAns,yPos,corrGoResp,yPosGoStim,xPosGoStim,pracTrials.thisRepN,pracTrials.thisTrialN,pracTrials.thisN,pracTrials.thisIndex,ReDoLoopPrac.thisRepN,ReDoLoopPrac.thisTrialN,ReDoLoopPrac.thisN,ReDoLoopPrac.thisIndex,ReDoLoopPrac.thisTrial,pracStopTrials.thisRepN,pracStopTrials.thisTrialN,pracStopTrials.thisN,pracStopTrials.thisIndex,Blocks.thisRepN,Blocks.thisTrialN,Blocks.thisN,Blocks.thisIndex,Blocks.thisTrial,trials.thisRepN,trials.thisTrialN,trials.thisN,trials.thisIndex,ok1.keys,ok1.rt,StartTrialTimeStamp,resp.keys,resp.corr,resp.rt,key_resp_8.keys,learningStimOnset,learningFixOnset,EndTrialTimeStamp,beginningSSD,trialType,goStim,goResp.keys,goResp.corr,key_resp_9.keys,goTrailCountOutput,goCumRTOutput,goRTCountOutput,stopTrialCountOutput,stopSuccessCountOutput,omissionCountOutput,commissionCountOutput,fixStopOnset,goStimOnset,stopSignalOnset,key_resp_3.keys,key_resp_3.rt,NewStimTimeStamp,EndNewStimTimeStamp,expName,gender (m/f),age,frameRate,session,date,participant,
,,,,,,,,,,,,,,,,,,,,,,,,,,,,space,1.02729797363,,,,,,,,,,,,,,,,,,,,,,,,,,,,,LearningTask,,,59.9966241829,3,2015_Jun_02_1022,16,
-200,a,-200,,,,0,0,0,3,0,0,0,0,None,,,,,,,,,,,,,,,,12.9619579315,a,1,0.367551088333,None,0.503821134567,0.00488710403442,15.9513380527,,,,,,,,,,,,,,,,,,,,,LearningTask,,,59.9966241829,3,2015_Jun_02_1022,16,
-200,a,-200,,,,0,0,0,3,,,,,,,,,,,,,,,,,,,,,,,,,,,,,,,,,,,,,,,,,,,,,,,,,LearningTask,,,59.9966241829,3,2015_Jun_02_1022,16,
200,s,-200,,,,0,1,1,2,0,0,0,0,None,,,,,,,,,,,,,,,,15.9834890366,s,1,0.317498922348,None,0.501368999481,0.0015971660614,18.9873530865,,,,,,,,,,,,,,,,,,,,,LearningTask,,,59.9966241829,3,2015_Jun_02_1022,16,
200,s,-200,,,,0,1,1,2,,,,,,,,,,,,,,,,,,,,,,,,,,,,,,,,,,,,,,,,,,,,,,,,,LearningTask,,,59.9966241829,3,2015_Jun_02_1022,16,
200,w,200,,,,0,2,2,8,0,0,0,0,None,,,,,,,,,,,,,,,,19.0308721066,w,1,0.217427968979,None,0.506427049637,0.00137400627136,22.0230431557,,,,,,,,,,,,,,,,,,,,,LearningTask,,,59.9966241829,3,2015_Jun_02_1022,16,
200,w,200,,,,0,2,2,8,,,,,,,,,,,,,,,,,,,,,,,,,,,,,,,,,,,,,,,,,,,,,,,,,LearningTask,,,59.9966241829,3,2015_Jun_02_1022,16,
-200,q,200,,,,0,3,3,5,0,0,0,0,None,,,,,,,,,,,,,,,,22.0742659569,None,0,,None,0.515398979187,0.00162410736084,25.0753679276,,,,,,,,,,,,,,,,,,,,,LearningTask,,,59.9966241829,3,2015_Jun_02_1022,16,
-200,q,200,,,,0,3,3,5,1,0,1,0,None,,,,,,,,,,,,,,,,25.0759489536,None,0,,None,0.516011953354,0.00123882293701,28.0776259899,,,,,,,,,,,,,,,,,,,,,LearningTask,,,59.9966241829,3,2015_Jun_02_1022,16,
-200,q,200,,,,0,3,3,5,2,0,2,0,None,,,,,,,,,,,,,,,,28.0782589912,None,0,,None,0.516076087952,0.00128293037415,31.096724987,,,,,,,,,,,,,,,,,,,,,LearningTask,,,59.9966241829,3,2015_Jun_02_1022,16,
-200,q,200,,,,0,3,3,5,3,0,3,0,None,,,,,,,,,,,,,,,,31.0974831581,None,0,,None,0.515820980072,0.00126600265503,34.0988900661,,,,,,,,,,,,,,,,,,,,,LearningTask,,,59.9966241829,3,2015_Jun_02_1022,16,
-200,q,200,,,,0,3,3,5,4,0,4,0,None,,,,,,,,,,,,,,,,34.0995061398,None,0,,None,0.516246080399,0.00123500823975,37.1015789509,,,,,,,,,,,,,,,,,,,,,LearningTask,,,59.9966241829,3,2015_Jun_02_1022,16,
-200,q,200,,,,0,3,3,5,,,,,,,,,,,,,,,,,,,,,,,,,,,,,,,,,,,,,,,,,,,,,,,,,LearningTask,,,59.9966241829,3,2015_Jun_02_1022,16,
200,w,200,,,,0,4,4,4,0,0,0,0,None,,,,,,,,,,,,,,,,37.1576249599,None,0,,None,0.51080083847,0.00092601776123,40.1537511349,,,,,,,,,,,,,,,,,,,,,LearningTask,,,59.9966241829,3,2015_Jun_02_1022,16,
200,w,200,,,,0,4,4,4,1,0,1,0,None,,,,,,,,,,,,,,,,40.1541919708,None,0,,None,0.51646399498,0.000974893569946,43.1561999321,,,,,,,,,,,,,,,,,,,,,LearningTask,,,59.9966241829,3,2015_Jun_02_1022,16,
200,w,200,,,,0,4,4,4,2,0,2,0,None,,,,,,,,,,,,,,,,43.1566250324,None,0,,None,0.516404867172,0.000945091247559,46.1588630676,,,,,,,,,,,,,,,,,,,,,LearningTask,,,59.9966241829,3,2015_Jun_02_1022,16,
200,w,200,,,,0,4,4,4,3,0,3,0,None,,,,,,,,,,,,,,,,46.1593649387,None,0,,None,0.516228914261,0.000982999801636,49.1610870361,,,,,,,,,,,,,,,,,,,,,LearningTask,,,59.9966241829,3,2015_Jun_02_1022,16,
200,w,200,,,,0,4,4,4,4,0,4,0,None,,,,,,,,,,,,,,,,49.1615209579,None,0,,None,0.516386985779,0.00107383728027,52.1635320187,,,,,,,,,,,,,,,,,,,,,LearningTask,,,59.9966241829,3,2015_Jun_02_1022,16,
200,w,200,,,,0,4,4,4,,,,,,,,,,,,,,,,,,,,,,,,,,,,,,,,,,,,,,,,,,,,,,,,,LearningTask,,,59.9966241829,3,2015_Jun_02_1022,16,
-200,a,-200,,,,0,5,5,7,0,0,0,0,None,,,,,,,,,,,,,,,,52.2239420414,None,0,,None,0.506258010864,0.000988006591797,55.2159581184,,,,,,,,,,,,,,,,,,,,,LearningTask,,,59.9966241829,3,2015_Jun_02_1022,16,
-200,a,-200,,,,0,5,5,7,1,0,1,0,None,,,,,,,,,,,,,,,,55.2163980007,None,0,,None,0.516381025314,0.0010130405426,58.2178390026,,,,,,,,,,,,,,,,,,,,,LearningTask,,,59.9966241829,3,2015_Jun_02_1022,16,
-200,a,-200,,,,0,5,5,7,2,0,2,0,None,,,,,,,,,,,,,,,,58.2182681561,None,0,,None,0.516335010529,0.000952959060669,61.2206470966,,,,,,,,,,,,,,,,,,,,,LearningTask,,,59.9966241829,3,2015_Jun_02_1022,16,
-200,a,-200,,,,0,5,5,7,3,0,3,0,None,,,,,,,,,,,,,,,,61.2212240696,None,0,,None,0.516283988953,0.00127291679382,64.2230081558,,,,,,,,,,,,,,,,,,,,,LearningTask,,,59.9966241829,3,2015_Jun_02_1022,16,
-200,a,-200,,,,0,5,5,7,4,0,4,0,None,,,,,,,,,,,,,,,,64.2234289646,None,0,,None,0.516404867172,0.000962018966675,67.2254760265,,,,,,,,,,,,,,,,,,,,,LearningTask,,,59.9966241829,3,2015_Jun_02_1022,16,
-200,a,-200,,,,0,5,5,7,,,,,,,,,,,,,,,,,,,,,,,,,,,,,,,,,,,,,,,,,,,,,,,,,LearningTask,,,59.9966241829,3,2015_Jun_02_1022,16,
200,s,-200,,,,0,6,6,6,0,0,0,0,None,,,,,,,,,,,,,,,,67.2957141399,None,0,,None,0.513040065765,0.00163197517395,70.2949259281,,,,,,,,,,,,,,,,,,,,,LearningTask,,,59.9966241829,3,2015_Jun_02_1022,16,
200,s,-200,,,,0,6,6,6,1,0,1,0,None,,,,,,,,,,,,,,,,70.2955460548,None,0,,None,0.515850067139,0.00108695030212,73.2969911098,,,,,,,,,,,,,,,,,,,,,LearningTask,,,59.9966241829,3,2015_Jun_02_1022,16,
200,s,-200,,,,0,6,6,6,2,0,2,0,None,,,,,,,,,,,,,,,,73.2973999977,None,0,,None,0.516261816025,0.000969886779785,76.2993431091,,,,,,,,,,,,,,,,,,,,,LearningTask,,,59.9966241829,3,2015_Jun_02_1022,16,
200,s,-200,,,,0,6,6,6,3,0,3,0,None,,,,,,,,,,,,,,,,76.299834013,None,0,,None,0.51624584198,0.00097393989563,79.3016090393,,,,,,,,,,,,,,,,,,,,,LearningTask,,,59.9966241829,3,2015_Jun_02_1022,16,
200,s,-200,,,,0,6,6,6,4,0,4,0,None,,,,,,,,,,,,,,,,79.3020730019,None,0,,None,0.516438961029,0.00105810165405,82.3038699627,,,,,,,,,,,,,,,,,,,,,LearningTask,,,59.9966241829,3,2015_Jun_02_1022,16,
200,s,-200,,,,0,6,6,6,,,,,,,,,,,,,,,,,,,,,,,,,,,,,,,,,,,,,,,,,,,,,,,,,LearningTask,,,59.9966241829,3,2015_Jun_02_1022,16,
200,w,200,,,,0,7,7,0,0,0,0,0,None,,,,,,,,,,,,,,,,82.3777549267,None,0,,None,0.509536981583,0.00155901908875,85.3734381199,,,,,,,,,,,,,,,,,,,,,LearningTask,,,59.9966241829,3,2015_Jun_02_1022,16,
200,w,200,,,,0,7,7,0,1,0,1,0,None,,,,,,,,,,,,,,,,85.3740861416,None,0,,None,0.51585483551,0.00137901306152,88.3759679794,,,,,,,,,,,,,,,,,,,,,LearningTask,,,59.9966241829,3,2015_Jun_02_1022,16,
200,w,200,,,,0,7,7,0,2,0,2,0,None,,,,,,,,,,,,,,,,88.3766810894,None,0,,None,0.515598058701,0.00146508216858,91.3780810833,,,,,,,,,,,,,,,,,,,,,LearningTask,,,59.9966241829,3,2015_Jun_02_1022,16,
200,w,200,,,,0,7,7,0,3,0,3,0,None,,,,,,,,,,,,,,,,91.3787090778,None,0,,None,0.515897035599,0.00153088569641,94.3803670406,,,,,,,,,,,,,,,,,,,,,LearningTask,,,59.9966241829,3,2015_Jun_02_1022,16,
200,w,200,,,,0,7,7,0,4,0,4,0,None,,,,,,,,,,,,,,,,94.3808031082,None,0,,None,0.516422986984,0.00103712081909,97.3827321529,,,,,,,,,,,,,,,,,,,,,LearningTask,,,59.9966241829,3,2015_Jun_02_1022,16,
200,w,200,,,,0,7,7,0,,,,,,,,,,,,,,,,,,,,,,,,,,,,,,,,,,,,,,,,,,,,,,,,,LearningTask,,,59.9966241829,3,2015_Jun_02_1022,16,
-200,q,200,,,,0,8,8,9,0,0,0,0,None,,,,,,,,,,,,,,,,97.4655399323,None,0,,None,0.500839948654,0.000937938690186,100.468508959,,,,,,,,,,,,,,,,,,,,,LearningTask,,,59.9966241829,3,2015_Jun_02_1022,16,
-200,q,200,,,,0,8,8,9,1,0,1,0,None,,,,,,,,,,,,,,,,100.469078064,None,0,,None,0.516149044037,0.00121092796326,103.471019983,,,,,,,,,,,,,,,,,,,,,LearningTask,,,59.9966241829,3,2015_Jun_02_1022,16,
-200,q,200,,,,0,8,8,9,2,0,2,0,None,,,,,,,,,,,,,,,,103.471596956,None,0,,None,0.516065835953,0.00152492523193,106.473340034,,,,,,,,,,,,,,,,,,,,,LearningTask,,,59.9966241829,3,2015_Jun_02_1022,16,
-200,q,200,,,,0,8,8,9,3,0,3,0,None,,,,,,,,,,,,,,,,106.474085093,None,0,,None,0.515898942947,0.00133800506592,109.475716114,,,,,,,,,,,,,,,,,,,,,LearningTask,,,59.9966241829,3,2015_Jun_02_1022,16,
-200,q,200,,,,0,8,8,9,4,0,4,0,None,,,,,,,,,,,,,,,,109.47655797,None,0,,None,0.515715122223,0.00175499916077,112.478389978,,,,,,,,,,,,,,,,,,,,,LearningTask,,,59.9966241829,3,2015_Jun_02_1022,16,
-200,q,200,,,,0,8,8,9,,,,,,,,,,,,,,,,,,,,,,,,,,,,,,,,,,,,,,,,,,,,,,,,,LearningTask,,,59.9966241829,3,2015_Jun_02_1022,16,
-200,q,200,,,,0,9,9,1,0,0,0,0,None,,,,,,,,,,,,,,,,112.571558952,None,0,,None,0.506720066071,0.000943899154663,115.563864946,,,,,,,,,,,,,,,,,,,,,LearningTask,,,59.9966241829,3,2015_Jun_02_1022,16,
-200,q,200,,,,0,9,9,1,1,0,1,0,None,,,,,,,,,,,,,,,,115.564532042,None,0,,None,0.515889883041,0.00157284736633,118.566190958,,,,,,,,,,,,,,,,,,,,,LearningTask,,,59.9966241829,3,2015_Jun_02_1022,16,
-200,q,200,,,,0,9,9,1,2,0,2,0,None,,,,,,,,,,,,,,,,118.56687212,None,0,,None,0.516086101532,0.00143599510193,121.568699121,,,,,,,,,,,,,,,,,,,,,LearningTask,,,59.9966241829,3,2015_Jun_02_1022,16,
-200,q,200,,,,0,9,9,1,3,0,3,0,None,,,,,,,,,,,,,,,,121.569256067,None,0,,None,0.516219139099,0.00112414360046,124.571076155,,,,,,,,,,,,,,,,,,,,,LearningTask,,,59.9966241829,3,2015_Jun_02_1022,16,
-200,q,200,,,,0,9,9,1,4,0,4,0,None,,,,,,,,,,,,,,,,124.571671009,None,0,,None,0.516149997711,0.00200796127319,127.57349515,,,,,,,,,,,,,,,,,,,,,LearningTask,,,59.9966241829,3,2015_Jun_02_1022,16,
-200,q,200,,,,0,9,9,1,,,,,,,,,,,,,,,,,,,,,,,,,,,,,,,,,,,,,,,,,,,,,,,,,LearningTask,,,59.9966241829,3,2015_Jun_02_1022,16,
,,,m,0,200,,,,,,,,,,0,0,0,1,,,,,,,,,,,,131.383662939,,,,,,,134.379979134,-1,go,crossorange.gif,None,0,None,1,0,0,0,0,1,0,0.00192093849182,0.508841991425,,,,,,LearningTask,,,59.9966241829,3,2015_Jun_02_1022,16,
,,,m,0,200,,,,,,,,,,0,1,1,1,,,,,,,,,,,,134.380680084,,,,,,,137.382483959,0.25,stop,triangleyellow.gif,None,0,None,1,0,0,1,1,1,0,0.00257992744446,0.5143430233,0.764575004578,,,,,LearningTask,,,59.9966241829,3,2015_Jun_02_1022,16,
,,,z,0,-200,,,,,,,,,,1,0,2,0,,,,,,,,,,,,137.383079052,,,,,,,140.384907007,-1,go,crossorange.gif,None,0,None,2,0,0,1,1,2,0,0.00107789039612,0.514643907547,,,,,,LearningTask,,,59.9966241829,3,2015_Jun_02_1022,16,
,,,z,0,-200,,,,,,,,,,1,1,3,0,,,,,,,,,,,,140.385556936,,,,,,,143.387071133,0.25,stop,squareblue.gif,None,0,None,2,0,0,2,2,2,0,0.00130391120911,0.514029979706,0.764282941818,,,,,LearningTask,,,59.9966241829,3,2015_Jun_02_1022,16,
,,,z,0,-200,,,,,,,,,,2,0,4,0,,,,,,,,,,,,143.387742043,,,,,,,146.389747143,-1,go,hexagongreen.gif,None,0,None,3,0,0,2,2,3,0,0.00157594680786,0.514621019363,,,,,,LearningTask,,,59.9966241829,3,2015_Jun_02_1022,16,
,,,m,0,200,,,,,,,,,,2,1,5,1,,,,,,,,,,,,146.390382051,,,,,,,149.391961098,0.25,stop,invertedtrianglecyan.gif,None,0,None,3,0,0,3,3,3,0,0.00146818161011,0.514352083206,0.764540195465,,,,,LearningTask,,,59.9966241829,3,2015_Jun_02_1022,16,
,,,z,0,-200,,,,,,,,,,3,0,6,0,,,,,,,,,,,,149.392573118,,,,,,,152.394403934,0.25,stop,diamondwhite.gif,None,0,None,3,0,0,4,4,3,0,0.00116920471191,0.514543056488,0.764815092087,,,,,LearningTask,,,59.9966241829,3,2015_Jun_02_1022,16,
,,,m,0,200,,,,,,,,,,3,1,7,1,,,,,,,,,,,,152.395060062,,,,,,,155.396733999,-1,go,hexagongreen.gif,None,0,None,4,0,0,4,4,4,0,0.00117492675781,0.514410972595,,,,,,LearningTask,,,59.9966241829,3,2015_Jun_02_1022,16,
,,,z,0,-200,,,,,,,,,,4,0,8,0,,,,,,,,,,,,155.397562981,,,,,,,158.398708105,-1,go,hexagongreen.gif,None,0,None,5,0,0,4,4,5,0,0.00127291679382,0.514446973801,,,,,,LearningTask,,,59.9966241829,3,2015_Jun_02_1022,16,
,,,m,0,200,,,,,,,,,,4,1,9,1,,,,,,,,,,,,158.39934516,,,,,,,161.401355028,-1,go,circlemagenta.gif,None,0,None,6,0,0,4,4,6,0,0.00120806694031,0.514569044113,,,,,,LearningTask,,,59.9966241829,3,2015_Jun_02_1022,16,
,,,,,,,,,,,,,,,,,,,,,,,,,,,,,,,,,,,,,,,,,,,,,,,,,,,,,,space,2.38246202469,,,LearningTask,,,59.9966241829,3,2015_Jun_02_1022,16,
,,,,,,,,,,,,,,,,,,,,,,,,,,,,space,0.682559967041,,,,,,,,,,,,,,,,,,,,,,,,,,,,,LearningTask,,,59.9966241829,3,2015_Jun_02_1022,16,
