xPos,corrAns,yPos,pracTrials.thisRepN,pracTrials.thisTrialN,pracTrials.thisN,pracTrials.thisIndex,pracStopTrials.thisRepN,pracStopTrials.thisTrialN,pracStopTrials.thisN,pracStopTrials.thisIndex,Blocks.thisRepN,Blocks.thisTrialN,Blocks.thisN,Blocks.thisIndex,trials.thisRepN,trials.thisTrialN,trials.thisN,trials.thisIndex,ok1.keys,ok1.rt,key_resp_3.keys,key_resp_3.rt,NewStimTimeStamp,EndNewStimTimeStamp,StartTrialTimeStamp,resp.keys,resp.corr,resp.rt,key_resp_8.keys,computedRewardOutput,learningStimOnset,learningFixOnset,EndTrialTimeStamp,key_resp_7.keys,key_resp_7.rt,expName,gender (m/f),age,frameRate,session,date,participant,
,,,,,,,,,,,,,,,,,,,space,13.4357681274,,,,,,,,,,,,,,,,LearningTask,,,59.9322417521,3,2015_Jun_02_1026,17,
,,,,,,,,,,,,,,,,,,,,,space,1.01553893089,,,,,,,,,,,,,,LearningTask,,,59.9322417521,3,2015_Jun_02_1026,17,
,,,,,,,,,,,,,,,,,,,space,0.749156951904,,,,,,,,,,,,,,,,LearningTask,,,59.9322417521,3,2015_Jun_02_1026,17,
-200,a,-200,,,,,,,,,0,0,0,0,0,0,0,3,,,,,21.3650400639,21.3652350903,21.3654911518,a,1,0.417439937592,None,1.82,0.511098146439,0.00348496437073,24.3622469902,,,LearningTask,,,59.9322417521,3,2015_Jun_02_1026,17,
200,w,200,,,,,,,,,0,0,0,0,0,1,1,0,,,,,24.3629131317,24.3630609512,24.3632571697,w,1,0.317452192307,None,0.28,0.515861988068,0.00155806541443,27.3648710251,,,LearningTask,,,59.9322417521,3,2015_Jun_02_1026,17,
-200,a,-200,,,,,,,,,0,0,0,0,0,2,2,3,,,,,27.3657021523,27.3659050465,27.3661119938,a,1,0.351219892502,None,0.88,0.515305995941,0.00246095657349,30.3672299385,,,LearningTask,,,59.9322417521,3,2015_Jun_02_1026,17,
-200,a,-200,,,,,,,,,0,0,0,0,0,3,3,3,,,,,30.3678629398,30.3680210114,30.3682329655,a,1,0.367431879044,None,3.83,0.515489816666,0.00209498405457,33.3693981171,,,LearningTask,,,59.9322417521,3,2015_Jun_02_1026,17,
-200,a,-200,,,,,,,,,0,0,0,0,1,0,4,3,,,,,33.3702399731,33.3705050945,33.3707001209,a,1,0.367449045181,None,1.17,0.515450000763,0.00226497650146,36.371899128,,,LearningTask,,,59.9322417521,3,2015_Jun_02_1026,17,
200,s,-200,,,,,,,,,0,0,0,0,1,1,5,2,,,,,36.3728821278,36.3731191158,36.3733899593,s,1,0.267493963242,None,2.25,0.515069007874,0.00162220001221,39.3741819859,,,LearningTask,,,59.9322417521,3,2015_Jun_02_1026,17,
200,w,200,,,,,,,,,0,0,0,0,1,2,6,0,,,,,39.3751211166,39.3753290176,39.3756160736,w,1,0.35066986084,None,1.94,0.515032052994,0.0011990070343,42.3764741421,,,LearningTask,,,59.9322417521,3,2015_Jun_02_1026,17,
200,s,-200,,,,,,,,,0,0,0,0,1,3,7,2,,,,,42.3773109913,42.3775219917,42.377794981,s,1,0.350745916367,None,4.19,0.515400886536,0.00121307373047,45.3790910244,,,LearningTask,,,59.9322417521,3,2015_Jun_02_1026,17,
200,s,-200,,,,,,,,,0,0,0,0,2,0,8,2,,,,,45.3798429966,45.3799891472,45.3801791668,s,1,0.333980083466,None,4.04,0.515632152557,0.00101399421692,48.3813509941,,,LearningTask,,,59.9322417521,3,2015_Jun_02_1026,17,
200,w,200,,,,,,,,,0,0,0,0,2,1,9,0,,,,,48.3825769424,48.3828840256,48.3832840919,w,1,0.334630012512,None,4.11,0.514587879181,0.00139999389648,51.3838591576,,,LearningTask,,,59.9322417521,3,2015_Jun_02_1026,17,
-200,q,200,,,,,,,,,0,0,0,0,2,2,10,1,,,,,51.3848209381,51.3850319386,51.3853039742,q,1,0.317919969559,None,2.15,0.514908075333,0.0029091835022,54.3863580227,,,LearningTask,,,59.9322417521,3,2015_Jun_02_1026,17,
200,s,-200,,,,,,,,,0,0,0,0,2,3,11,2,,,,,54.3872001171,54.3874261379,54.3879070282,s,1,0.234205007553,None,1.92,0.514819145203,0.00346112251282,57.3886671066,,,LearningTask,,,59.9322417521,3,2015_Jun_02_1026,17,
-200,a,-200,,,,,,,,,0,0,0,0,3,0,12,3,,,,,57.3895089626,57.3897190094,57.3899900913,a,1,0.366975069046,None,4.02,0.515193939209,0.00287508964539,60.3909080029,,,LearningTask,,,59.9322417521,3,2015_Jun_02_1026,17,
-200,q,200,,,,,,,,,0,0,0,0,3,1,13,1,,,,,60.3915879726,60.3917560577,60.3919739723,q,1,0.384218931198,None,3.76,0.515616893768,0.00092887878418,63.3937320709,,,LearningTask,,,59.9322417521,3,2015_Jun_02_1026,17,
-200,a,-200,,,,,,,,,0,0,0,0,3,2,14,3,,,,,63.394562006,63.3948249817,63.3952209949,a,1,0.384037017822,None,1.01,0.514763116837,0.00176405906677,66.3953340054,,,LearningTask,,,59.9322417521,3,2015_Jun_02_1026,17,
200,w,200,,,,,,,,,0,0,0,0,3,3,15,0,,,,,66.3962030411,66.3964130878,66.3966851234,w,1,0.334136009216,None,4.11,0.51519203186,0.0012149810791,69.3981781006,,,LearningTask,,,59.9322417521,3,2015_Jun_02_1026,17,
-200,a,-200,,,,,,,,,0,0,0,0,4,0,16,3,,,,,69.3990440369,69.39925313,69.3996319771,a,1,0.400820016861,None,4.13,0.515022039413,0.00144195556641,72.4005081654,,,LearningTask,,,59.9322417521,3,2015_Jun_02_1026,17,
200,s,-200,,,,,,,,,0,0,0,0,4,1,17,2,,,,,72.4013359547,72.4015440941,72.4018139839,s,1,0.300692081451,None,0.49,0.515142917633,0.00241088867188,75.4031779766,,,LearningTask,,,59.9322417521,3,2015_Jun_02_1026,17,
-200,q,200,,,,,,,,,0,0,0,0,4,2,18,1,,,,,75.4040379524,75.4042460918,75.4045159817,None,0,,None,0.28,0.514855861664,0.00128793716431,78.4054510593,,,LearningTask,,,59.9322417521,3,2015_Jun_02_1026,17,
-200,a,-200,,,,,,,,,0,0,0,0,4,3,19,3,,,,,78.4062869549,78.4065880775,78.4069910049,None,0,,None,2.23,0.514769077301,0.00132918357849,81.4077601433,,,LearningTask,,,59.9322417521,3,2015_Jun_02_1026,17,
-200,q,200,,,,,,,,,0,0,0,0,5,0,20,1,,,,,81.4086041451,81.4088151455,81.4090869427,None,0,,None,1.24,0.515124082565,0.00129413604736,84.4100689888,,,LearningTask,,,59.9322417521,3,2015_Jun_02_1026,17,
200,w,200,,,,,,,,,0,0,0,0,5,1,21,0,,,,,84.4109201431,84.4111330509,84.4114091396,None,0,,None,1.25,0.515208959579,0.00120306015015,87.4126019478,,,LearningTask,,,59.9322417521,3,2015_Jun_02_1026,17,
200,s,-200,,,,,,,,,0,0,0,0,5,2,22,2,,,,,87.4136030674,87.4137811661,87.4140081406,None,0,,None,3.75,0.515161991119,0.00143384933472,90.4146921635,,,LearningTask,,,59.9322417521,3,2015_Jun_02_1026,17,
200,w,200,,,,,,,,,0,0,0,0,5,3,23,0,,,,,90.415612936,90.4158229828,90.4160950184,None,0,,None,1.88,0.514922142029,0.00149822235107,93.417263031,,,LearningTask,,,59.9322417521,3,2015_Jun_02_1026,17,
-200,q,200,,,,,,,,,0,0,0,0,6,0,24,1,,,,,93.4182879925,93.4185011387,93.4188251495,None,0,,None,2.0,0.514797925949,0.00143480300903,96.4198589325,,,LearningTask,,,59.9322417521,3,2015_Jun_02_1026,17,
200,w,200,,,,,,,,,0,0,0,0,6,1,25,0,,,,,96.4209260941,96.4211421013,96.4214701653,None,0,,None,2.2,0.514797925949,0.00126481056213,99.4218299389,,,LearningTask,,,59.9322417521,3,2015_Jun_02_1026,17,
200,w,200,,,,,,,,,0,0,0,0,6,2,26,0,,,,,99.4226651192,99.4228739738,99.4231469631,None,0,,None,0.94,0.515363931656,0.00123906135559,102.424399137,,,LearningTask,,,59.9322417521,3,2015_Jun_02_1026,17,
200,s,-200,,,,,,,,,0,0,0,0,6,3,27,2,,,,,102.425202131,102.425405025,102.425668001,None,0,,None,1.14,0.515383958817,0.00119614601135,105.427011013,,,LearningTask,,,59.9322417521,3,2015_Jun_02_1026,17,
-200,a,-200,,,,,,,,,0,0,0,0,7,0,28,3,,,,,105.428195953,105.428499937,105.42889905,None,0,,None,3.84,0.514271020889,0.00160193443298,108.429399967,,,LearningTask,,,59.9322417521,3,2015_Jun_02_1026,17,
-200,a,-200,,,,,,,,,0,0,0,0,7,1,29,3,,,,,108.43029809,108.430510044,108.430855989,None,0,,None,1.95,0.514769792557,0.00172185897827,111.431839943,,,LearningTask,,,59.9322417521,3,2015_Jun_02_1026,17,
-200,q,200,,,,,,,,,0,0,0,0,7,2,30,1,,,,,111.432701111,111.432914972,111.433306932,None,0,,None,2.21,0.514603853226,0.00173807144165,114.433899164,,,LearningTask,,,59.9322417521,3,2015_Jun_02_1026,17,
200,w,200,,,,,,,,,0,0,0,0,7,3,31,0,,,,,114.434739113,114.434947968,114.435220003,None,0,,None,0.9,0.515096902847,0.00120782852173,117.43631196,,,LearningTask,,,59.9322417521,3,2015_Jun_02_1026,17,
-200,q,200,,,,,,,,,0,0,0,0,8,0,32,1,,,,,117.437186956,117.437394142,117.437772989,None,0,,None,0.84,0.514834880829,0.00135588645935,120.43900609,,,LearningTask,,,59.9322417521,3,2015_Jun_02_1026,17,
-200,a,-200,,,,,,,,,0,0,0,0,8,1,33,3,,,,,120.439836025,120.440099955,120.440500975,None,0,,None,3.87,0.514700174332,0.00169515609741,123.441190004,,,LearningTask,,,59.9322417521,3,2015_Jun_02_1026,17,
200,s,-200,,,,,,,,,0,0,0,0,8,2,34,2,,,,,123.442046165,123.442254066,123.442643166,None,0,,None,3.99,0.514725923538,0.00173807144165,126.443349123,,,LearningTask,,,59.9322417521,3,2015_Jun_02_1026,17,
-200,q,200,,,,,,,,,0,0,0,0,8,3,35,1,,,,,126.444215059,126.444458008,126.444765091,None,0,,None,0.88,0.51521396637,0.00132298469543,129.445815086,,,LearningTask,,,59.9322417521,3,2015_Jun_02_1026,17,
200,w,200,,,,,,,,,0,0,0,0,9,0,36,0,,,,,129.446653128,129.446866035,129.447144985,None,0,,None,1.01,0.515304088593,0.00122499465942,132.448251963,,,LearningTask,,,59.9322417521,3,2015_Jun_02_1026,17,
200,s,-200,,,,,,,,,0,0,0,0,9,1,37,2,,,,,132.449084044,132.449293137,132.44956398,None,0,,None,0.43,0.515163183212,0.00130105018616,135.450839996,,,LearningTask,,,59.9322417521,3,2015_Jun_02_1026,17,
200,w,200,,,,,,,,,0,0,0,0,9,2,38,0,,,,,135.451709032,135.452018023,135.452419043,None,0,,None,0.93,0.514572143555,0.00170516967773,138.453058958,,,LearningTask,,,59.9322417521,3,2015_Jun_02_1026,17,
-200,q,200,,,,,,,,,0,0,0,0,9,3,39,1,,,,,138.454008102,138.454220057,138.454509974,None,0,,None,0.92,0.515174865723,0.00123190879822,141.455007076,,,LearningTask,,,59.9322417521,3,2015_Jun_02_1026,17,
-200,q,200,,,,,,,,,0,0,0,0,10,0,40,1,,,,,141.455841064,141.456053019,141.4563241,None,0,,None,0.87,0.515139818192,0.00122880935669,144.457759142,,,LearningTask,,,59.9322417521,3,2015_Jun_02_1026,17,
200,s,-200,,,,,,,,,0,0,0,0,10,1,41,2,,,,,144.458637953,144.458852053,144.459124088,None,0,,None,0.62,0.515152931213,0.00124406814575,147.460247993,,,LearningTask,,,59.9322417521,3,2015_Jun_02_1026,17,
-200,a,-200,,,,,,,,,0,0,0,0,10,2,42,3,,,,,147.461447954,147.461756945,147.462162018,None,0,,None,2.13,0.514412164688,0.00129318237305,150.462599993,,,LearningTask,,,59.9322417521,3,2015_Jun_02_1026,17,
200,w,200,,,,,,,,,0,0,0,0,10,3,43,0,,,,,150.463634968,150.46384716,150.46412015,None,0,,None,0.28,0.514863967896,0.00147294998169,153.465103149,,,LearningTask,,,59.9322417521,3,2015_Jun_02_1026,17,
-200,q,200,,,,,,,,,0,0,0,0,11,0,44,1,,,,,153.46579814,153.465955019,153.466175079,None,0,,None,1.07,0.515883922577,0.00105690956116,156.46748209,,,LearningTask,,,59.9322417521,3,2015_Jun_02_1026,17,
-200,a,-200,,,,,,,,,0,0,0,0,11,1,45,3,,,,,156.468438148,156.468650103,156.468937159,None,0,,None,0.33,0.514833927155,0.00150895118713,159.469583988,,,LearningTask,,,59.9322417521,3,2015_Jun_02_1026,17,
200,s,-200,,,,,,,,,0,0,0,0,11,2,46,2,,,,,159.470453024,159.470664024,159.470937014,None,0,,None,0.51,0.515350103378,0.00135803222656,162.472079039,,,LearningTask,,,59.9322417521,3,2015_Jun_02_1026,17,
200,s,-200,,,,,,,,,0,0,0,0,11,3,47,2,,,,,162.472903967,162.473112106,162.47338295,None,0,,None,2.03,0.515330076218,0.00114893913269,165.474302053,,,LearningTask,,,59.9322417521,3,2015_Jun_02_1026,17,
200,s,-200,,,,,,,,,0,0,0,0,12,0,48,2,,,,,165.475120068,165.475319147,165.475582123,None,0,,None,2.07,0.515176057816,0.00117421150208,168.476814032,,,LearningTask,,,59.9322417521,3,2015_Jun_02_1026,17,
200,w,200,,,,,,,,,0,0,0,0,12,1,49,0,,,,,168.477690935,168.477898121,168.478279114,None,0,,None,1.97,0.51497220993,0.00143313407898,171.47926116,,,LearningTask,,,59.9322417521,3,2015_Jun_02_1026,17,
200,w,200,,,,,,,,,0,0,0,0,12,2,50,0,,,,,171.479973078,171.480148077,171.480410099,None,0,,None,0.97,0.515434980392,0.00109004974365,174.48149395,,,LearningTask,,,59.9322417521,3,2015_Jun_02_1026,17,
200,w,200,,,,,,,,,0,0,0,0,12,3,51,0,,,,,174.482439995,174.482649088,174.482985973,None,0,,None,4.25,0.515112876892,0.00129294395447,177.484225035,,,LearningTask,,,59.9322417521,3,2015_Jun_02_1026,17,
-200,q,200,,,,,,,,,0,0,0,0,13,0,52,1,,,,,177.485450029,177.485756159,177.486186981,None,0,,None,4.23,0.514186859131,0.00149583816528,180.486322165,,,LearningTask,,,59.9322417521,3,2015_Jun_02_1026,17,
-200,a,-200,,,,,,,,,0,0,0,0,13,1,53,3,,,,,180.487143993,180.487352133,180.487622976,None,0,,None,0.79,0.515330791473,0.00123286247253,183.488669157,,,LearningTask,,,59.9322417521,3,2015_Jun_02_1026,17,
-200,q,200,,,,,,,,,0,0,0,0,13,2,54,1,,,,,183.489345074,183.489513159,183.489732981,None,0,,None,3.9,0.515610933304,0.000942945480347,186.491294146,,,LearningTask,,,59.9322417521,3,2015_Jun_02_1026,17,
200,w,200,,,,,,,,,0,0,0,0,13,3,55,0,,,,,186.492130995,186.492401123,186.49279809,None,0,,None,2.06,0.514718055725,0.00132203102112,189.493616104,,,LearningTask,,,59.9322417521,3,2015_Jun_02_1026,17,
200,w,200,,,,,,,,,0,0,0,0,14,0,56,0,,,,,189.49435401,189.494548082,189.494799137,None,0,,None,0.54,0.515316963196,0.00102996826172,192.495456934,,,LearningTask,,,59.9322417521,3,2015_Jun_02_1026,17,
200,s,-200,,,,,,,,,0,0,0,0,14,1,57,2,,,,,192.496319056,192.496525049,192.496796131,None,0,,None,0.93,0.515430927277,0.00123691558838,195.498314142,,,LearningTask,,,59.9322417521,3,2015_Jun_02_1026,17,
-200,a,-200,,,,,,,,,0,0,0,0,14,2,58,3,,,,,195.499166012,195.499356985,195.49960494,None,0,,None,2.25,0.515289068222,0.00109910964966,198.500648975,,,LearningTask,,,59.9322417521,3,2015_Jun_02_1026,17,
-200,q,200,,,,,,,,,0,0,0,0,14,3,59,1,,,,,198.501356125,198.501526117,198.50178504,None,0,,None,1.91,0.515269994736,0.00115895271301,201.503123045,,,LearningTask,,,59.9322417521,3,2015_Jun_02_1026,17,
200,w,200,,,,,,,,,0,0,0,0,15,0,60,0,,,,,201.503944159,201.504140139,201.504423141,None,0,,None,2.16,0.515107154846,0.0012001991272,204.505455971,,,LearningTask,,,59.9322417521,3,2015_Jun_02_1026,17,
-200,q,200,,,,,,,,,0,0,0,0,15,1,61,1,,,,,204.506382942,204.506590128,204.506860971,None,0,,None,4.17,0.515038013458,0.0013279914856,207.50794816,,,LearningTask,,,59.9322417521,3,2015_Jun_02_1026,17,
200,s,-200,,,,,,,,,0,0,0,0,15,2,62,2,,,,,207.509153128,207.509464979,207.509865046,None,0,,None,1.17,0.514451026917,0.00123715400696,210.510307074,,,LearningTask,,,59.9322417521,3,2015_Jun_02_1026,17,
200,w,200,,,,,,,,,0,0,0,0,15,3,63,0,,,,,210.511505127,210.511813164,210.512212038,None,0,,None,0.61,0.514367103577,0.00141501426697,213.51265502,,,LearningTask,,,59.9322417521,3,2015_Jun_02_1026,17,
-200,a,-200,,,,,,,,,0,0,0,0,16,0,64,3,,,,,213.513486147,213.513697147,213.513968945,None,0,,None,3.82,0.515257835388,0.00121188163757,216.514676094,,,LearningTask,,,59.9322417521,3,2015_Jun_02_1026,17,
200,s,-200,,,,,,,,,0,0,0,0,16,1,65,2,,,,,216.515500069,216.515774965,216.516046047,None,0,,None,0.52,0.515120029449,0.00161600112915,219.517475128,,,LearningTask,,,59.9322417521,3,2015_Jun_02_1026,17,
-200,q,200,,,,,,,,,0,0,0,0,16,2,66,1,,,,,219.518424988,219.518635035,219.518908024,None,0,,None,2.23,0.514747858047,0.00160503387451,222.520192146,,,LearningTask,,,59.9322417521,3,2015_Jun_02_1026,17,
200,s,-200,,,,,,,,,0,0,0,0,16,3,67,2,,,,,222.521064997,222.521319151,222.521589994,None,0,,None,1.16,0.514696121216,0.00159502029419,225.522123098,,,LearningTask,,,59.9322417521,3,2015_Jun_02_1026,17,
200,s,-200,,,,,,,,,0,0,0,0,17,0,68,2,,,,,225.523057938,225.523266077,225.523535967,None,0,,None,0.84,0.515030145645,0.00144410133362,228.524460077,,,LearningTask,,,59.9322417521,3,2015_Jun_02_1026,17,
-200,a,-200,,,,,,,,,0,0,0,0,17,1,69,3,,,,,228.525333166,228.525541067,228.525846004,None,0,,None,0.38,0.515357017517,0.00124287605286,231.526947021,,,LearningTask,,,59.9322417521,3,2015_Jun_02_1026,17,
-200,a,-200,,,,,,,,,0,0,0,0,17,2,70,3,,,,,231.527848005,231.528058052,231.52839303,None,0,,None,0.33,0.514920949936,0.00126194953918,234.529538155,,,LearningTask,,,59.9322417521,3,2015_Jun_02_1026,17,
-200,a,-200,,,,,,,,,0,0,0,0,17,3,71,3,,,,,234.530733109,234.53104496,234.531442165,None,0,,None,4.09,0.514248132706,0.00162696838379,237.531861067,,,LearningTask,,,59.9322417521,3,2015_Jun_02_1026,17,
-200,q,200,,,,,,,,,0,0,0,0,18,0,72,1,,,,,237.532773018,237.533019066,237.533309937,None,0,,None,1.99,0.514937162399,0.00125122070312,240.534193993,,,LearningTask,,,59.9322417521,3,2015_Jun_02_1026,17,
-200,q,200,,,,,,,,,0,0,0,0,18,1,73,1,,,,,240.535083055,240.535326004,240.53559804,None,0,,None,3.8,0.514871120453,0.0014910697937,243.536322117,,,LearningTask,,,59.9322417521,3,2015_Jun_02_1026,17,
-200,q,200,,,,,,,,,0,0,0,0,18,2,74,1,,,,,243.537153959,243.537429094,243.537822962,None,0,,None,0.51,0.514988183975,0.00123715400696,246.539016962,,,LearningTask,,,59.9322417521,3,2015_Jun_02_1026,17,
200,s,-200,,,,,,,,,0,0,0,0,18,3,75,2,,,,,246.53994298,246.540154934,246.540429115,None,0,,None,1.0,0.515024900436,0.00172996520996,249.541291952,,,LearningTask,,,59.9322417521,3,2015_Jun_02_1026,17,
-200,q,200,,,,,,,,,0,0,0,0,19,0,76,1,,,,,249.542132139,249.542422056,249.542828083,None,0,,None,3.8,0.514665126801,0.00171995162964,252.543652058,,,LearningTask,,,59.9322417521,3,2015_Jun_02_1026,17,
200,s,-200,,,,,,,,,0,0,0,0,19,1,77,2,,,,,252.544732094,252.545043945,252.54548502,None,0,,None,0.34,0.514549970627,0.00127911567688,255.546138048,,,LearningTask,,,59.9322417521,3,2015_Jun_02_1026,17,
-200,q,200,,,,,,,,,0,0,0,0,19,2,78,1,,,,,255.547184944,255.547395945,255.547667027,None,0,,None,0.52,0.514793872833,0.00149703025818,258.548496008,,,LearningTask,,,59.9322417521,3,2015_Jun_02_1026,17,
-200,a,-200,,,,,,,,,0,0,0,0,19,3,79,3,,,,,258.549392939,258.549602985,258.549875021,None,0,,None,0.77,0.515053987503,0.00169205665588,261.550776958,,,LearningTask,,,59.9322417521,3,2015_Jun_02_1026,17,
-200,a,-200,,,,,,,,,0,0,0,0,20,0,80,3,,,,,261.551973104,261.552279949,261.552653074,None,0,,None,4.11,0.514588117599,0.0012149810791,264.553151131,,,LearningTask,,,59.9322417521,3,2015_Jun_02_1026,17,
200,w,200,,,,,,,,,0,0,0,0,20,1,81,0,,,,,264.553982019,264.554192066,264.554461956,None,0,,None,0.57,0.515293121338,0.00127696990967,267.55520916,,,LearningTask,,,59.9322417521,3,2015_Jun_02_1026,17,
200,w,200,,,,,,,,,0,0,0,0,20,2,82,0,,,,,267.556046963,267.556302071,267.556699038,None,0,,None,1.86,0.5148229599,0.00154709815979,270.557846069,,,LearningTask,,,59.9322417521,3,2015_Jun_02_1026,17,
200,s,-200,,,,,,,,,0,0,0,0,20,3,83,2,,,,,270.558683157,270.558895111,270.5591681,None,0,,None,0.97,0.515240907669,0.00123691558838,273.560304165,,,LearningTask,,,59.9322417521,3,2015_Jun_02_1026,17,
200,w,200,,,,,,,,,0,0,0,0,21,0,84,0,,,,,273.561179161,273.561390162,273.561665058,None,0,,None,0.86,0.515027046204,0.00125503540039,276.562839985,,,LearningTask,,,59.9322417521,3,2015_Jun_02_1026,17,
200,w,200,,,,,,,,,0,0,0,0,21,1,85,0,,,,,276.563683987,276.563895941,276.564316988,None,0,,None,0.56,0.514736890793,0.00127696990967,279.565114975,,,LearningTask,,,59.9322417521,3,2015_Jun_02_1026,17,
200,s,-200,,,,,,,,,0,0,0,0,21,2,86,2,,,,,279.565984011,279.566195011,279.566534996,None,0,,None,1.02,0.515074968338,0.00131702423096,282.567533016,,,LearningTask,,,59.9322417521,3,2015_Jun_02_1026,17,
-200,a,-200,,,,,,,,,0,0,0,0,21,3,87,3,,,,,282.568747044,282.569057941,282.569460154,None,0,,None,3.91,0.51439499855,0.0014750957489,285.569766998,,,LearningTask,,,59.9322417521,3,2015_Jun_02_1026,17,
200,w,200,,,,,,,,,0,0,0,0,22,0,88,0,,,,,285.570605993,285.570816994,285.571092129,None,0,,None,0.93,0.51523399353,0.0012059211731,288.572417021,,,LearningTask,,,59.9322417521,3,2015_Jun_02_1026,17,
-200,a,-200,,,,,,,,,0,0,0,0,22,1,89,3,,,,,288.573321104,288.573581934,288.57400012,None,0,,None,0.72,0.51461482048,0.00189995765686,291.574552059,,,LearningTask,,,59.9322417521,3,2015_Jun_02_1026,17,
-200,a,-200,,,,,,,,,0,0,0,0,22,2,90,3,,,,,291.575466156,291.575679064,291.576025009,None,0,,None,4.16,0.514704942703,0.00134301185608,294.57697916,,,LearningTask,,,59.9322417521,3,2015_Jun_02_1026,17,
-200,q,200,,,,,,,,,0,0,0,0,22,3,91,1,,,,,294.577914,294.578227043,294.578629017,None,0,,None,0.76,0.514723062515,0.00134992599487,297.57941103,,,LearningTask,,,59.9322417521,3,2015_Jun_02_1026,17,
200,s,-200,,,,,,,,,0,0,0,0,23,0,92,2,,,,,297.58023715,297.580476999,297.580747128,None,0,,None,4.03,0.515224933624,0.00124406814575,300.581753016,,,LearningTask,,,59.9322417521,3,2015_Jun_02_1026,17,
-200,q,200,,,,,,,,,0,0,0,0,23,1,93,1,,,,,300.58258605,300.582792044,300.583200932,None,0,,None,0.59,0.514914035797,0.00171899795532,303.584157944,,,LearningTask,,,59.9322417521,3,2015_Jun_02_1026,17,
-200,q,200,,,,,,,,,0,0,0,0,23,2,94,1,,,,,303.584991932,303.585200071,303.585472107,None,0,,None,0.53,0.515208959579,0.00123596191406,306.586480141,,,LearningTask,,,59.9322417521,3,2015_Jun_02_1026,17,
200,w,200,,,,,,,,,0,0,0,0,23,3,95,0,,,,,306.587316036,306.58752799,306.587908983,None,0,,None,2.09,0.515064954758,0.00146389007568,309.588932991,,,LearningTask,,,59.9322417521,3,2015_Jun_02_1026,17,
-200,q,200,,,,,,,,,0,0,0,0,24,0,96,1,,,,,309.589771986,309.590080023,309.59047699,None,0,,None,0.9,0.514932155609,0.00118112564087,312.591503143,,,LearningTask,,,59.9322417521,3,2015_Jun_02_1026,17,
200,s,-200,,,,,,,,,0,0,0,0,24,1,97,2,,,,,312.59236908,312.59258008,312.592863083,None,0,,None,1.77,0.514976978302,0.00126194953918,315.593969107,,,LearningTask,,,59.9322417521,3,2015_Jun_02_1026,17,
200,s,-200,,,,,,,,,0,0,0,0,24,2,98,2,,,,,315.594979048,315.595227957,315.595541954,None,0,,None,4.13,0.514607906342,0.00139403343201,318.595868111,,,LearningTask,,,59.9322417521,3,2015_Jun_02_1026,17,
-200,a,-200,,,,,,,,,0,0,0,0,24,3,99,3,,,,,318.596735001,318.597038031,318.597450972,None,0,,None,0.67,0.51486992836,0.00160789489746,321.598706961,,,LearningTask,,,59.9322417521,3,2015_Jun_02_1026,17,
,,,,,,,,,,,0,0,0,0,,,,,,,,,,,,,,,,,,,,escape,1105.47898293,LearningTask,,,59.9322417521,3,2015_Jun_02_1026,17,
