xPos,corrAns,yPos,pracTrials.thisRepN,pracTrials.thisTrialN,pracTrials.thisN,pracTrials.thisIndex,pracStopTrials.thisRepN,pracStopTrials.thisTrialN,pracStopTrials.thisN,pracStopTrials.thisIndex,Blocks.thisRepN,Blocks.thisTrialN,Blocks.thisN,Blocks.thisIndex,Blocks.thisTrial,trials.thisRepN,trials.thisTrialN,trials.thisN,trials.thisIndex,ReDoLoopMain.thisRepN,ReDoLoopMain.thisTrialN,ReDoLoopMain.thisN,ReDoLoopMain.thisIndex,ReDoLoopMain.thisTrial,ok1.keys,ok1.rt,key_resp_3.keys,key_resp_3.rt,NewStimTimeStamp,EndNewStimTimeStamp,StartTrialTimeStamp,resp.keys,resp.corr,key_resp_8.keys,key_resp_8.rt,computedRewardOutput,learningStimOnset,learningFixOnset,EndTrialTimeStamp,resp.rt,expName,gender (m/f),age,frameRate,session,date,participant,
,,,,,,,,,,,,,,,,,,,,,,,,,space,0.423585891724,,,,,,,,,,,,,,,LearningTask,,,59.9617153469,3,2015_Jun_02_1101,19,
,,,,,,,,,,,,,,,,,,,,,,,,,,,space,0.698018074036,,,,,,,,,,,,,LearningTask,,,59.9617153469,3,2015_Jun_02_1101,19,
,,,,,,,,,,,,,,,,,,,,,,,,,space,0.599086999893,,,,,,,,,,,,,,,LearningTask,,,59.9617153469,3,2015_Jun_02_1101,19,
200,s,-200,,,,,,,,,0,0,0,0,None,0,0,0,2,,,,,,,,,,10.2199990749,10.2201981544,13.2159881592,s,1,None,0.208394050598,0.94,0.516251087189,0.000943183898926,16.2179729939,0.16726398468,LearningTask,,,59.9617153469,3,2015_Jun_02_1101,19,
-200,q,200,,,,,,,,,0,0,0,0,None,0,1,1,1,,,,,,,,,,16.2187211514,16.2188899517,16.2201001644,q,1,None,,0.25,0.531252861023,0.00228500366211,19.2203741074,0.617599010468,LearningTask,,,59.9617153469,3,2015_Jun_02_1101,19,
-200,q,200,,,,,,,,,0,0,0,0,None,0,2,2,1,,,,,,,,,,19.2210030556,19.2211749554,19.2224071026,q,1,None,,0.44,0.514521121979,0.00214099884033,22.2228400707,0.517640829086,LearningTask,,,59.9617153469,3,2015_Jun_02_1101,19,
200,s,-200,,,,,,,,,0,0,0,0,None,0,3,3,2,,,,,,,,,,22.2234449387,22.2236130238,22.2246069908,s,1,None,,0.52,0.515015125275,0.000891208648682,25.2251031399,0.484087944031,LearningTask,,,59.9617153469,3,2015_Jun_02_1101,19,
-200,a,-200,,,,,,,,,0,0,0,0,None,1,0,4,3,,,,,,,,,,25.2257480621,25.2259130478,25.2270381451,a,1,None,,2.0,0.5144739151,0.0021870136261,28.2274420261,0.551003932953,LearningTask,,,59.9617153469,3,2015_Jun_02_1101,19,
-200,a,-200,,,,,,,,,0,0,0,0,None,1,1,5,3,,,,,,,,,,28.2283511162,28.2285611629,31.2307219505,a,1,None,,1.98,0.515743970871,0.00157690048218,34.2325620651,0.534464836121,LearningTask,,,59.9617153469,3,2015_Jun_02_1101,19,
-200,q,200,,,,,,,,,0,0,0,0,None,1,2,6,1,,,,,,,,,,34.2334301472,34.2337019444,34.2352321148,q,1,None,,3.75,0.513514995575,0.00168514251709,37.2346551418,0.601261854172,LearningTask,,,59.9617153469,3,2015_Jun_02_1101,19,
200,s,-200,,,,,,,,,0,0,0,0,None,1,3,7,2,,,,,,,,,,37.2354049683,37.235574007,37.2367799282,s,1,None,,0.48,0.514558076859,0.00095796585083,40.2371790409,0.284065008163,LearningTask,,,59.9617153469,3,2015_Jun_02_1101,19,
-200,q,200,,,,,,,,,0,0,0,0,None,2,0,8,1,,,,,,,,,,40.2381179333,40.2383899689,52.2471570969,None,0,None,,1.76,0.515874147415,0.00153112411499,55.2491681576,,LearningTask,,,59.9617153469,3,2015_Jun_02_1101,19,
200,s,-200,,,,,,,,,0,0,0,0,None,2,1,9,2,,,,,,,,,,55.2500469685,55.2503499985,55.251969099,s,1,None,,0.49,0.513787031174,0.00116395950317,58.2679309845,0.517783880234,LearningTask,,,59.9617153469,3,2015_Jun_02_1101,19,
-200,q,200,,,,,,,,,0,0,0,0,None,2,2,10,1,,,,,,,,,,58.2689621449,58.269231081,61.2711279392,q,1,None,,1.75,0.515938043594,0.00149393081665,64.2729561329,0.250829935074,LearningTask,,,59.9617153469,3,2015_Jun_02_1101,19,
-200,q,200,,,,,,,,,0,0,0,0,None,2,3,11,1,,,,,,,,,,64.2739551067,64.2741630077,64.2756791115,q,1,None,,0.29,0.513628005981,0.00126600265503,67.2752211094,0.600989103317,LearningTask,,,59.9617153469,3,2015_Jun_02_1101,19,
200,w,200,,,,,,,,,0,0,0,0,None,3,0,12,0,,,,,,,,,,67.2760641575,67.2762701511,70.2782371044,w,1,None,,0.4,0.515940904617,0.00132584571838,73.2800140381,0.250603914261,LearningTask,,,59.9617153469,3,2015_Jun_02_1101,19,
-200,q,200,,,,,,,,,0,0,0,0,None,3,1,13,1,,,,,,,,,,73.2808589935,73.2810659409,73.2824950218,q,1,None,,3.95,0.514184951782,0.00135612487793,76.2823190689,0.551064968109,LearningTask,,,59.9617153469,3,2015_Jun_02_1101,19,
200,s,-200,,,,,,,,,0,0,0,0,None,3,2,14,2,,,,,,,,,,76.2831859589,76.2833869457,88.2928440571,None,0,None,,4.08,0.515633106232,0.00157713890076,91.2943270206,,LearningTask,,,59.9617153469,3,2015_Jun_02_1101,19,
200,w,200,,,,,,,,,0,0,0,0,None,3,3,15,0,,,,,,,,,,91.2949521542,91.2951090336,103.320955992,None,0,None,,4.24,0.515970945358,0.00154185295105,106.323055983,,LearningTask,,,59.9617153469,3,2015_Jun_02_1101,19,
200,w,200,,,,,,,,,0,0,0,0,None,4,0,16,0,,,,,,,,,,106.324108124,106.324314117,118.333199978,None,0,None,,1.11,0.515789985657,0.00120997428894,121.334924936,,LearningTask,,,59.9617153469,3,2015_Jun_02_1101,19,
-200,q,200,,,,,,,,,0,0,0,0,None,4,1,17,1,,,,,,,,,,121.335911989,121.336117029,133.34504199,None,0,None,,3.92,0.515736103058,0.00151300430298,136.347166061,,LearningTask,,,59.9617153469,3,2015_Jun_02_1101,19,
200,s,-200,,,,,,,,,0,0,0,0,None,4,2,18,2,,,,,,,,,,136.348125935,136.348366022,148.356944084,None,0,None,,3.81,0.516036987305,0.00130009651184,151.358406067,,LearningTask,,,59.9617153469,3,2015_Jun_02_1101,19,
-200,a,-200,,,,,,,,,0,0,0,0,None,4,3,19,3,,,,,,,,,,151.359229088,151.359441042,163.368687153,None,0,None,,4.21,0.516191005707,0.00125908851624,166.370530128,,LearningTask,,,59.9617153469,3,2015_Jun_02_1101,19,
200,s,-200,,,,,,,,,0,0,0,0,None,5,0,20,2,,,,,,,,,,166.371438026,166.37174201,178.380403042,None,0,None,,2.0,0.516145944595,0.0012149810791,181.382585049,,LearningTask,,,59.9617153469,3,2015_Jun_02_1101,19,
200,w,200,,,,,,,,,0,0,0,0,None,5,1,21,0,,,,,,,,,,181.383413076,181.383620977,193.39250493,None,0,None,,0.67,0.516081094742,0.00117611885071,196.394313097,,LearningTask,,,59.9617153469,3,2015_Jun_02_1101,19,
200,w,200,,,,,,,,,0,0,0,0,None,5,2,22,0,,,,,,,,,,196.395241022,196.395447969,208.40468812,None,0,None,,1.93,0.515828132629,0.00145602226257,211.406368017,,LearningTask,,,59.9617153469,3,2015_Jun_02_1101,19,
200,s,-200,,,,,,,,,0,0,0,0,None,5,3,23,2,,,,,,,,,,211.407207966,211.407395124,223.416625977,None,0,None,,0.34,0.515861988068,0.00152397155762,226.418211937,,LearningTask,,,59.9617153469,3,2015_Jun_02_1101,19,
-200,a,-200,,,,,,,,,0,0,0,0,None,6,0,24,3,,,,,,,,,,226.419265032,226.419471979,238.428223133,None,0,None,,3.93,0.516117095947,0.00129103660583,241.429928064,,LearningTask,,,59.9617153469,3,2015_Jun_02_1101,19,
200,w,200,,,,,,,,,0,0,0,0,None,6,1,25,0,,,,,,,,,,241.430776119,241.430977106,253.440075159,None,0,None,,1.24,0.515906095505,0.00131607055664,256.442110062,,LearningTask,,,59.9617153469,3,2015_Jun_02_1101,19,
200,s,-200,,,,,,,,,0,0,0,0,None,6,2,26,2,,,,,,,,,,256.442990065,256.443201065,268.452383041,None,0,None,,0.75,0.515643119812,0.00143504142761,271.453932047,,LearningTask,,,59.9617153469,3,2015_Jun_02_1101,19,
