xPos,corrAns,yPos,corrGoResp,yPosGoStim,xPosGoStim,pracTrials.thisRepN,pracTrials.thisTrialN,pracTrials.thisN,pracTrials.thisIndex,ReDoLoopPrac.thisRepN,ReDoLoopPrac.thisTrialN,ReDoLoopPrac.thisN,ReDoLoopPrac.thisIndex,ReDoLoopPrac.thisTrial,pracStopTrials.thisRepN,pracStopTrials.thisTrialN,pracStopTrials.thisN,pracStopTrials.thisIndex,Blocks.thisRepN,Blocks.thisTrialN,Blocks.thisN,Blocks.thisIndex,Blocks.thisTrial,trials.thisRepN,trials.thisTrialN,trials.thisN,trials.thisIndex,ReDoLoopMain.thisRepN,ReDoLoopMain.thisTrialN,ReDoLoopMain.thisN,ReDoLoopMain.thisIndex,ReDoLoopMain.thisTrial,ok1.keys,ok1.rt,resp.keys,resp.corr,resp.rt,learningStimOnset,learningFixOnset,FeedbackOffTimestamp,EndTrialTimeStamp,beginningSSD,trialType,goStim,goResp.keys,goResp.corr,goTrailCountOutput,goCumRTOutput,goRTCountOutput,stopTrialCountOutput,stopSuccessCountOutput,omissionCountOutput,commissionCountOutput,fixStopOnset,goStimOnset,stopSignalOnset,goResp.rt,key_resp_3.keys,key_resp_3.rt,computedRewardOutput,expName,gender (m/f),age,frameRate,session,date,participant,
,,,,,,,,,,,,,,,,,,,,,,,,,,,,,,,,,space,0.547828197479,,,,,,,,,,,,,,,,,,,,,,,,,,,LearningTask,,,59.9721751564,3,2015_May_27_1532,1,
-200,a,-200,,,,0,0,0,3,0,0,0,0,None,,,,,,,,,,,,,,,,,,,,,a,1,0.569474935532,0.514369010925,0.00607991218567,<psychopy.clock.Clock instance at 0x1b57b468>,<psychopy.clock.Clock instance at 0x1b57b6e8>,,,,,,,,,,,,,,,,,,,,LearningTask,,,59.9721751564,3,2015_May_27_1532,1,
-200,a,-200,,,,0,0,0,3,,,,,,,,,,,,,,,,,,,,,,,,,,,,,,,,,,,,,,,,,,,,,,,,,,,,LearningTask,,,59.9721751564,3,2015_May_27_1532,1,
200,w,200,,,,0,1,1,4,0,0,0,0,None,,,,,,,,,,,,,,,,,,,,,w,1,0.300852060318,0.504191875458,0.00192284584045,<psychopy.clock.Clock instance at 0x1dfef990>,<psychopy.clock.Clock instance at 0x1b5a32d8>,,,,,,,,,,,,,,,,,,,,LearningTask,,,59.9721751564,3,2015_May_27_1532,1,
200,w,200,,,,0,1,1,4,,,,,,,,,,,,,,,,,,,,,,,,,,,,,,,,,,,,,,,,,,,,,,,,,,,,LearningTask,,,59.9721751564,3,2015_May_27_1532,1,
-200,q,200,,,,0,2,2,9,0,0,0,0,None,,,,,,,,,,,,,,,,,,,,,q,1,0.334323883057,0.512984037399,0.00152802467346,<psychopy.clock.Clock instance at 0x1dfe2b20>,<psychopy.clock.Clock instance at 0x1b5a5440>,,,,,,,,,,,,,,,,,,,,LearningTask,,,59.9721751564,3,2015_May_27_1532,1,
-200,q,200,,,,0,2,2,9,,,,,,,,,,,,,,,,,,,,,,,,,,,,,,,,,,,,,,,,,,,,,,,,,,,,LearningTask,,,59.9721751564,3,2015_May_27_1532,1,
-200,q,200,,,,0,3,3,5,0,0,0,0,None,,,,,,,,,,,,,,,,,,,,,q,1,0.367563962936,0.501610040665,0.000979900360107,<psychopy.clock.Clock instance at 0x1dfeb508>,<psychopy.clock.Clock instance at 0xae3db70>,,,,,,,,,,,,,,,,,,,,LearningTask,,,59.9721751564,3,2015_May_27_1532,1,
-200,q,200,,,,0,3,3,5,,,,,,,,,,,,,,,,,,,,,,,,,,,,,,,,,,,,,,,,,,,,,,,,,,,,LearningTask,,,59.9721751564,3,2015_May_27_1532,1,
-200,q,200,,,,0,4,4,1,0,0,0,0,None,,,,,,,,,,,,,,,,,,,,,q,1,0.434380054474,0.5097219944,0.00170683860779,<psychopy.clock.Clock instance at 0xae44af8>,<psychopy.clock.Clock instance at 0xae44800>,,,,,,,,,,,,,,,,,,,,LearningTask,,,59.9721751564,3,2015_May_27_1532,1,
-200,q,200,,,,0,4,4,1,,,,,,,,,,,,,,,,,,,,,,,,,,,,,,,,,,,,,,,,,,,,,,,,,,,,LearningTask,,,59.9721751564,3,2015_May_27_1532,1,
200,s,-200,,,,0,5,5,2,0,0,0,0,None,,,,,,,,,,,,,,,,,,,,,s,1,0.284113168716,0.501671075821,0.0011100769043,<psychopy.clock.Clock instance at 0xae3c5d0>,<psychopy.clock.Clock instance at 0xae3cc88>,,,,,,,,,,,,,,,,,,,,LearningTask,,,59.9721751564,3,2015_May_27_1532,1,
200,s,-200,,,,0,5,5,2,,,,,,,,,,,,,,,,,,,,,,,,,,,,,,,,,,,,,,,,,,,,,,,,,,,,LearningTask,,,59.9721751564,3,2015_May_27_1532,1,
-200,a,-200,,,,0,6,6,7,0,0,0,0,None,,,,,,,,,,,,,,,,,,,,,a,1,0.300677061081,0.51523399353,0.000941038131714,<psychopy.clock.Clock instance at 0x1bbc2738>,<psychopy.clock.Clock instance at 0x1d739e90>,,,,,,,,,,,,,,,,,,,,LearningTask,,,59.9721751564,3,2015_May_27_1532,1,
-200,a,-200,,,,0,6,6,7,,,,,,,,,,,,,,,,,,,,,,,,,,,,,,,,,,,,,,,,,,,,,,,,,,,,LearningTask,,,59.9721751564,3,2015_May_27_1532,1,
200,w,200,,,,0,7,7,8,0,0,0,0,None,,,,,,,,,,,,,,,,,,,,,w,1,0.284069061279,0.509517908096,0.00166797637939,<psychopy.clock.Clock instance at 0x1d73a3f0>,<psychopy.clock.Clock instance at 0x1d73ab48>,,,,,,,,,,,,,,,,,,,,LearningTask,,,59.9721751564,3,2015_May_27_1532,1,
200,w,200,,,,0,7,7,8,,,,,,,,,,,,,,,,,,,,,,,,,,,,,,,,,,,,,,,,,,,,,,,,,,,,LearningTask,,,59.9721751564,3,2015_May_27_1532,1,
200,s,-200,,,,0,8,8,6,0,0,0,0,None,,,,,,,,,,,,,,,,,,,,,s,1,0.334108114243,0.500003099442,0.00098705291748,<psychopy.clock.Clock instance at 0x1b58f148>,<psychopy.clock.Clock instance at 0x1d73a648>,,,,,,,,,,,,,,,,,,,,LearningTask,,,59.9721751564,3,2015_May_27_1532,1,
200,s,-200,,,,0,8,8,6,,,,,,,,,,,,,,,,,,,,,,,,,,,,,,,,,,,,,,,,,,,,,,,,,,,,LearningTask,,,59.9721751564,3,2015_May_27_1532,1,
200,w,200,,,,0,9,9,0,0,0,0,0,None,,,,,,,,,,,,,,,,,,,,,w,1,0.367504119873,0.509506940842,0.00165891647339,<psychopy.clock.Clock instance at 0x1d737350>,<psychopy.clock.Clock instance at 0x1d737b98>,,,,,,,,,,,,,,,,,,,,LearningTask,,,59.9721751564,3,2015_May_27_1532,1,
200,w,200,,,,0,9,9,0,,,,,,,,,,,,,,,,,,,,,,,,,,,,,,,,,,,,,,,,,,,,,,,,,,,,LearningTask,,,59.9721751564,3,2015_May_27_1532,1,
,,,m,0,200,,,,,,,,,,0,0,0,1,,,,,,,,,,,,,,,,,,,,,,,<psychopy.clock.Clock instance at 0x1d905d78>,0.25,stop,hexagonblue.gif,None,0,0,0,0,1,1,0,0,0.00143313407898,0.515422105789,0.76550412178,,,,,LearningTask,,,59.9721751564,3,2015_May_27_1532,1,
,,,m,0,200,,,,,,,,,,0,1,1,1,,,,,,,,,,,,,,,,,,,,,,,<psychopy.clock.Clock instance at 0x1d9055f8>,0.25,stop,trianglemagenta.gif,m,1,0,0,0,2,1,0,0,0.00101518630981,0.51478600502,0.764902114868,0.467339038849,,,,LearningTask,,,59.9721751564,3,2015_May_27_1532,1,
,,,m,0,200,,,,,,,,,,1,0,2,1,,,,,,,,,,,,,,,,,,,,,,,<psychopy.clock.Clock instance at 0x1d905b70>,0.25,stop,squarecyan.gif,None,0,0,0,0,3,2,0,0,0.000967979431152,0.515717983246,0.765933036804,,,,,LearningTask,,,59.9721751564,3,2015_May_27_1532,1,
,,,z,0,-200,,,,,,,,,,1,1,3,0,,,,,,,,,,,,,,,,,,,,,,,<psychopy.clock.Clock instance at 0x1d905e90>,0.25,stop,squarecyan.gif,None,0,0,0,0,4,3,0,0,0.00103902816772,0.515286922455,0.765549898148,,,,,LearningTask,,,59.9721751564,3,2015_May_27_1532,1,
,,,z,0,-200,,,,,,,,,,2,0,4,0,,,,,,,,,,,,,,,,,,,,,,,<psychopy.clock.Clock instance at 0x1bab2c60>,-1,go,crossorange.gif,z,1,1,0.500597953796,1,4,3,0,0,0.00233602523804,0.515290021896,,0.500597953796,,,,LearningTask,,,59.9721751564,3,2015_May_27_1532,1,
,,,z,0,-200,,,,,,,,,,2,1,5,0,,,,,,,,,,,,,,,,,,,,,,,<psychopy.clock.Clock instance at 0x1d905e40>,0.25,stop,trianglemagenta.gif,None,0,1,0.500597953796,1,5,4,0,0,0.00102806091309,0.515035152435,0.765017032623,,,,,LearningTask,,,59.9721751564,3,2015_May_27_1532,1,
,,,z,0,-200,,,,,,,,,,3,0,6,0,,,,,,,,,,,,,,,,,,,,,,,<psychopy.clock.Clock instance at 0x1dfc25a8>,-1,go,crossorange.gif,z,1,2,1.03456091881,2,5,4,0,0,0.00102996826172,0.515549898148,,0.533962965012,,,,LearningTask,,,59.9721751564,3,2015_May_27_1532,1,
,,,z,0,-200,,,,,,,,,,3,1,7,0,,,,,,,,,,,,,,,,,,,,,,,<psychopy.clock.Clock instance at 0x1bac3990>,-1,go,lineyellow.gif,z,1,3,1.56865286827,3,5,4,0,0,0.00144410133362,0.514798164368,,0.534091949463,,,,LearningTask,,,59.9721751564,3,2015_May_27_1532,1,
,,,m,0,200,,,,,,,,,,4,0,8,1,,,,,,,,,,,,,,,,,,,,,,,<psychopy.clock.Clock instance at 0x1d905238>,0.25,stop,trianglemagenta.gif,None,0,3,1.56865286827,3,6,5,0,0,0.00103306770325,0.51548409462,0.765473127365,,,,,LearningTask,,,59.9721751564,3,2015_May_27_1532,1,
,,,m,0,200,,,,,,,,,,4,1,9,1,,,,,,,,,,,,,,,,,,,,,,,<psychopy.clock.Clock instance at 0x1d905c88>,0.25,stop,squarecyan.gif,None,0,3,1.56865286827,3,7,6,0,0,0.000975847244263,0.515617847443,0.765855073929,,,,,LearningTask,,,59.9721751564,3,2015_May_27_1532,1,
,,,,,,,,,,,,,,,,,,,,,,,,,,,,,,,,,,,,,,,,,,,,,,,,,,,,,,,,,,space,6.74632287025,,LearningTask,,,59.9721751564,3,2015_May_27_1532,1,
,,,,,,,,,,,,,,,,,,,,,,,,,,,,,,,,,space,1.5500099659,,,,,,,,,,,,,,,,,,,,,,,,,,,LearningTask,,,59.9721751564,3,2015_May_27_1532,1,
200,s,-200,,,,,,,,,,,,,,,,,0,0,0,0,None,0,0,0,2,0,0,0,0,None,,,s,1,0.867799043655,0.51414680481,0.00100898742676,,<psychopy.clock.Clock instance at 0x1bbb7148>,,,,,,,,,,,,,,,,,,,1.18,LearningTask,,,59.9721751564,3,2015_May_27_1532,1,
200,s,-200,,,,,,,,,,,,,,,,,0,0,0,0,None,0,0,0,2,,,,,,,,,,,,,,,,,,,,,,,,,,,,,,,,,,LearningTask,,,59.9721751564,3,2015_May_27_1532,1,
-200,q,200,,,,,,,,,,,,,,,,,0,0,0,0,None,0,1,1,1,0,0,0,0,None,,,q,1,0.334162950516,0.50835609436,0.00103306770325,,<psychopy.clock.Clock instance at 0x1b3363f0>,,,,,,,,,,,,,,,,,,,0.62,LearningTask,,,59.9721751564,3,2015_May_27_1532,1,
-200,q,200,,,,,,,,,,,,,,,,,0,0,0,0,None,0,1,1,1,,,,,,,,,,,,,,,,,,,,,,,,,,,,,,,,,,LearningTask,,,59.9721751564,3,2015_May_27_1532,1,
200,s,-200,,,,,,,,,,,,,,,,,0,0,0,0,None,0,2,2,2,0,0,0,0,None,,,w,0,0.0837941169739,0.503851890564,0.000933885574341,,<psychopy.clock.Clock instance at 0xae3d058>,,,,,,,,,,,,,,,,,,,2.23,LearningTask,,,59.9721751564,3,2015_May_27_1532,1,
200,s,-200,,,,,,,,,,,,,,,,,0,0,0,0,None,0,2,2,2,1,0,1,0,None,,,s,1,0.317262887955,0.516257047653,0.00110507011414,,<psychopy.clock.Clock instance at 0x1d941918>,,,,,,,,,,,,,,,,,,,2.18,LearningTask,,,59.9721751564,3,2015_May_27_1532,1,
200,s,-200,,,,,,,,,,,,,,,,,0,0,0,0,None,0,2,2,2,,,,,,,,,,,,,,,,,,,,,,,,,,,,,,,,,,LearningTask,,,59.9721751564,3,2015_May_27_1532,1,
-200,q,200,,,,,,,,,,,,,,,,,0,0,0,0,None,0,3,3,1,0,0,0,0,None,,,None,0,,0.500957965851,0.00098991394043,,<psychopy.clock.Clock instance at 0x1d765968>,,,,,,,,,,,,,,,,,,,0.26,LearningTask,,,59.9721751564,3,2015_May_27_1532,1,
-200,q,200,,,,,,,,,,,,,,,,,0,0,0,0,None,0,3,3,1,1,0,1,0,None,,,q,1,0.201888084412,0.516407966614,0.00102615356445,,<psychopy.clock.Clock instance at 0x1d939be8>,,,,,,,,,,,,,,,,,,,0.47,LearningTask,,,59.9721751564,3,2015_May_27_1532,1,
-200,q,200,,,,,,,,,,,,,,,,,0,0,0,0,None,0,3,3,1,,,,,,,,,,,,,,,,,,,,,,,,,,,,,,,,,,LearningTask,,,59.9721751564,3,2015_May_27_1532,1,
200,w,200,,,,,,,,,,,,,,,,,0,0,0,0,None,1,0,4,0,0,0,0,0,None,,,w,1,0.384008169174,0.500604152679,0.00101113319397,,<psychopy.clock.Clock instance at 0x1d939af8>,,,,,,,,,,,,,,,,,,,0.33,LearningTask,,,59.9721751564,3,2015_May_27_1532,1,
200,w,200,,,,,,,,,,,,,,,,,0,0,0,0,None,1,0,4,0,,,,,,,,,,,,,,,,,,,,,,,,,,,,,,,,,,LearningTask,,,59.9721751564,3,2015_May_27_1532,1,
-200,q,200,,,,,,,,,,,,,,,,,0,0,0,0,None,1,1,5,1,0,0,0,0,None,,,q,1,0.434208869934,0.508676052094,0.000964879989624,,<psychopy.clock.Clock instance at 0x1bbc0030>,,,,,,,,,,,,,,,,,,,0.27,LearningTask,,,59.9721751564,3,2015_May_27_1532,1,
-200,q,200,,,,,,,,,,,,,,,,,0,0,0,0,None,1,1,5,1,,,,,,,,,,,,,,,,,,,,,,,,,,,,,,,,,,LearningTask,,,59.9721751564,3,2015_May_27_1532,1,
-200,q,200,,,,,,,,,,,,,,,,,0,0,0,0,None,1,2,6,1,0,0,0,0,None,,,q,1,0.50118803978,0.50917506218,0.000992059707642,,<psychopy.clock.Clock instance at 0x1bac40f8>,,,,,,,,,,,,,,,,,,,0.77,LearningTask,,,59.9721751564,3,2015_May_27_1532,1,
-200,q,200,,,,,,,,,,,,,,,,,0,0,0,0,None,1,2,6,1,,,,,,,,,,,,,,,,,,,,,,,,,,,,,,,,,,LearningTask,,,59.9721751564,3,2015_May_27_1532,1,
-200,a,-200,,,,,,,,,,,,,,,,,0,0,0,0,None,1,3,7,3,0,0,0,0,None,,,a,1,0.417500972748,0.506567955017,0.00100088119507,,<psychopy.clock.Clock instance at 0x1bac4d28>,,,,,,,,,,,,,,,,,,,1.98,LearningTask,,,59.9721751564,3,2015_May_27_1532,1,
-200,a,-200,,,,,,,,,,,,,,,,,0,0,0,0,None,1,3,7,3,,,,,,,,,,,,,,,,,,,,,,,,,,,,,,,,,,LearningTask,,,59.9721751564,3,2015_May_27_1532,1,
