xPos,corrAns,yPos,corrGoResp,yPosGoStim,xPosGoStim,pracTrials.thisRepN,pracTrials.thisTrialN,pracTrials.thisN,pracTrials.thisIndex,ReDoLoopPrac.thisRepN,ReDoLoopPrac.thisTrialN,ReDoLoopPrac.thisN,ReDoLoopPrac.thisIndex,ReDoLoopPrac.thisTrial,pracStopTrials.thisRepN,pracStopTrials.thisTrialN,pracStopTrials.thisN,pracStopTrials.thisIndex,Blocks.thisRepN,Blocks.thisTrialN,Blocks.thisN,Blocks.thisIndex,trials.thisRepN,trials.thisTrialN,trials.thisN,trials.thisIndex,ReDoLoopMain.thisRepN,ReDoLoopMain.thisTrialN,ReDoLoopMain.thisN,ReDoLoopMain.thisIndex,ReDoLoopMain.thisTrial,StopBlocks.thisRepN,StopBlocks.thisTrialN,StopBlocks.thisN,StopBlocks.thisIndex,StopTrials.thisRepN,StopTrials.thisTrialN,StopTrials.thisN,StopTrials.thisIndex,auctionBlocks.thisRepN,auctionBlocks.thisTrialN,auctionBlocks.thisN,auctionBlocks.thisIndex,auctionBlocks.thisTrial,auctionTrials.thisRepN,auctionTrials.thisTrialN,auctionTrials.thisN,auctionTrials.thisIndex,auctionTrials.thisTrial,ok1.keys,ok1.rt,resp.keys,resp.corr,resp.rt,learningStimOnset,learningFixOnset,beginningSSD,trialType,goStim,goResp.keys,goResp.corr,goResp.rt,goTrailCountOutput,goCumRTOutput,goRTCountOutput,stopTrialCountOutput,stopSuccessCountOutput,omissionCountOutput,commissionCountOutput,fixStopOnset,goStimOnset,stopSignalOnset,key_resp_3.keys,key_resp_3.rt,computedRewardOutput,EndingSSD,key_resp_4.keys,key_resp_4.rt,expName,gender (m/f),age,frameRate,session,date,participant,
,,,,,,,,,,,,,,,,,,,,,,,,,,,,,,,,,,,,,,,,,,,,,,,,,,a,13.5905618668,,,,,,,,,,,,,,,,,,,,,,,,,,,,LearningTask,,,59.9366095543,1,2015_May_26_1118,1,
-200,q,200,,,,0,0,0,9,0,0,0,0,None,,,,,,,,,,,,,,,,,,,,,,,,,,,,,,,,,,,,,,q,1,0.550935029984,0.50927901268,0.0691819190979,,,,,,,,,,,,,,,,,,,,,,,LearningTask,,,59.9366095543,1,2015_May_26_1118,1,
-200,q,200,,,,0,0,0,9,,,,,,,,,,,,,,,,,,,,,,,,,,,,,,,,,,,,,,,,,,,,,,,,,,,,,,,,,,,,,,,,,,,,,,LearningTask,,,59.9366095543,1,2015_May_26_1118,1,
200,s,-200,,,,0,1,1,6,0,0,0,0,None,,,,,,,,,,,,,,,,,,,,,,,,,,,,,,,,,,,,,,s,1,0.317302942276,0.511096954346,0.0238878726959,,,,,,,,,,,,,,,,,,,,,,,LearningTask,,,59.9366095543,1,2015_May_26_1118,1,
200,s,-200,,,,0,1,1,6,,,,,,,,,,,,,,,,,,,,,,,,,,,,,,,,,,,,,,,,,,,,,,,,,,,,,,,,,,,,,,,,,,,,,,LearningTask,,,59.9366095543,1,2015_May_26_1118,1,
200,s,-200,,,,0,2,2,2,0,0,0,0,None,,,,,,,,,,,,,,,,,,,,,,,,,,,,,,,,,,,,,,s,1,0.334448099136,0.515273094177,0.0478091239929,,,,,,,,,,,,,,,,,,,,,,,LearningTask,,,59.9366095543,1,2015_May_26_1118,1,
200,s,-200,,,,0,2,2,2,,,,,,,,,,,,,,,,,,,,,,,,,,,,,,,,,,,,,,,,,,,,,,,,,,,,,,,,,,,,,,,,,,,,,,LearningTask,,,59.9366095543,1,2015_May_26_1118,1,
-200,q,200,,,,0,3,3,5,0,0,0,0,None,,,,,,,,,,,,,,,,,,,,,,,,,,,,,,,,,,,,,,q,1,0.533780097961,0.509996891022,0.00129699707031,,,,,,,,,,,,,,,,,,,,,,,LearningTask,,,59.9366095543,1,2015_May_26_1118,1,
-200,q,200,,,,0,3,3,5,,,,,,,,,,,,,,,,,,,,,,,,,,,,,,,,,,,,,,,,,,,,,,,,,,,,,,,,,,,,,,,,,,,,,,LearningTask,,,59.9366095543,1,2015_May_26_1118,1,
-200,a,-200,,,,0,4,4,3,0,0,0,0,None,,,,,,,,,,,,,,,,,,,,,,,,,,,,,,,,,,,,,,a,1,0.384933948517,0.501880884171,0.000880002975464,,,,,,,,,,,,,,,,,,,,,,,LearningTask,,,59.9366095543,1,2015_May_26_1118,1,
-200,a,-200,,,,0,4,4,3,,,,,,,,,,,,,,,,,,,,,,,,,,,,,,,,,,,,,,,,,,,,,,,,,,,,,,,,,,,,,,,,,,,,,,LearningTask,,,59.9366095543,1,2015_May_26_1118,1,
200,w,200,,,,0,5,5,0,0,0,0,0,None,,,,,,,,,,,,,,,,,,,,,,,,,,,,,,,,,,,,,,w,1,0.368007183075,0.506754875183,0.000913858413696,,,,,,,,,,,,,,,,,,,,,,,LearningTask,,,59.9366095543,1,2015_May_26_1118,1,
200,w,200,,,,0,5,5,0,,,,,,,,,,,,,,,,,,,,,,,,,,,,,,,,,,,,,,,,,,,,,,,,,,,,,,,,,,,,,,,,,,,,,,LearningTask,,,59.9366095543,1,2015_May_26_1118,1,
-200,q,200,,,,0,6,6,1,0,0,0,0,None,,,,,,,,,,,,,,,,,,,,,,,,,,,,,,,,,,,,,,q,1,0.450833797455,0.503715991974,0.000888109207153,,,,,,,,,,,,,,,,,,,,,,,LearningTask,,,59.9366095543,1,2015_May_26_1118,1,
-200,q,200,,,,0,6,6,1,,,,,,,,,,,,,,,,,,,,,,,,,,,,,,,,,,,,,,,,,,,,,,,,,,,,,,,,,,,,,,,,,,,,,,LearningTask,,,59.9366095543,1,2015_May_26_1118,1,
200,w,200,,,,0,7,7,8,0,0,0,0,None,,,,,,,,,,,,,,,,,,,,,,,,,,,,,,,,,,,,,,w,1,0.451273918152,0.513265132904,0.00128602981567,,,,,,,,,,,,,,,,,,,,,,,LearningTask,,,59.9366095543,1,2015_May_26_1118,1,
200,w,200,,,,0,7,7,8,,,,,,,,,,,,,,,,,,,,,,,,,,,,,,,,,,,,,,,,,,,,,,,,,,,,,,,,,,,,,,,,,,,,,,LearningTask,,,59.9366095543,1,2015_May_26_1118,1,
200,w,200,,,,0,8,8,4,0,0,0,0,None,,,,,,,,,,,,,,,,,,,,,,,,,,,,,,,,,,,,,,w,1,0.451220989227,0.504472017288,0.000890970230103,,,,,,,,,,,,,,,,,,,,,,,LearningTask,,,59.9366095543,1,2015_May_26_1118,1,
200,w,200,,,,0,8,8,4,,,,,,,,,,,,,,,,,,,,,,,,,,,,,,,,,,,,,,,,,,,,,,,,,,,,,,,,,,,,,,,,,,,,,,LearningTask,,,59.9366095543,1,2015_May_26_1118,1,
-200,a,-200,,,,0,9,9,7,0,0,0,0,None,,,,,,,,,,,,,,,,,,,,,,,,,,,,,,,,,,,,,,a,1,0.401019096375,0.514657020569,0.0615110397339,,,,,,,,,,,,,,,,,,,,,,,LearningTask,,,59.9366095543,1,2015_May_26_1118,1,
-200,a,-200,,,,0,9,9,7,,,,,,,,,,,,,,,,,,,,,,,,,,,,,,,,,,,,,,,,,,,,,,,,,,,,,,,,,,,,,,,,,,,,,,LearningTask,,,59.9366095543,1,2015_May_26_1118,1,
,,,z,0,-200,,,,,,,,,,0,0,0,0,,,,,,,,,,,,,,,,,,,,,,,,,,,,,,,,,,,,,,,-1,go,triangleyellow.gif,z,1,0.45139503479,1,0.45139503479,1,0,0,0,0,0.0012948513031,0.51074886322,,,,,,,,LearningTask,,,59.9366095543,1,2015_May_26_1118,1,
,,,m,0,200,,,,,,,,,,0,1,1,1,,,,,,,,,,,,,,,,,,,,,,,,,,,,,,,,,,,,,,,0.25,stop,hexagonwhite.gif,m,1,0.417589902878,1,0.45139503479,1,1,0,0,0,0.000952005386353,0.515357017517,0.765508890152,,,,,,,LearningTask,,,59.9366095543,1,2015_May_26_1118,1,
,,,z,0,-200,,,,,,,,,,1,0,2,0,,,,,,,,,,,,,,,,,,,,,,,,,,,,,,,,,,,,,,,-1,go,lineorange.gif,z,1,0.61780500412,2,1.06920003891,2,1,0,0,0,0.000953912734985,0.51526594162,,,,,,,,LearningTask,,,59.9366095543,1,2015_May_26_1118,1,
,,,z,0,-200,,,,,,,,,,1,1,3,0,,,,,,,,,,,,,,,,,,,,,,,,,,,,,,,,,,,,,,,0.25,stop,diamondmagenta.gif,z,1,0.650933980942,2,1.06920003891,2,2,0,0,0,0.000942945480347,0.515793800354,0.766224861145,,,,,,,LearningTask,,,59.9366095543,1,2015_May_26_1118,1,
,,,m,0,200,,,,,,,,,,2,0,4,1,,,,,,,,,,,,,,,,,,,,,,,,,,,,,,,,,,,,,,,-1,go,lineorange.gif,m,1,0.785221099854,3,1.85442113876,3,2,0,0,0,0.00113701820374,0.515744924545,,,,,,,,LearningTask,,,59.9366095543,1,2015_May_26_1118,1,
,,,m,0,200,,,,,,,,,,2,1,5,1,,,,,,,,,,,,,,,,,,,,,,,,,,,,,,,,,,,,,,,0.25,stop,squarecyan.gif,None,0,,3,1.85442113876,3,3,1,0,0,0.0358259677887,0.515631914139,0.765619039536,,,,,,,LearningTask,,,59.9366095543,1,2015_May_26_1118,1,
,,,m,0,200,,,,,,,,,,3,0,6,1,,,,,,,,,,,,,,,,,,,,,,,,,,,,,,,,,,,,,,,0.25,stop,crossblue.gif,None,0,,3,1.85442113876,3,4,2,0,0,0.0420680046082,0.515743017197,0.765727996826,,,,,,,LearningTask,,,59.9366095543,1,2015_May_26_1118,1,
,,,z,0,-200,,,,,,,,,,3,1,7,0,,,,,,,,,,,,,,,,,,,,,,,,,,,,,,,,,,,,,,,0.25,stop,squarecyan.gif,None,0,,3,1.85442113876,3,5,3,0,0,0.0010290145874,0.515518188477,0.76628112793,,,,,,,LearningTask,,,59.9366095543,1,2015_May_26_1118,1,
,,,z,0,-200,,,,,,,,,,4,0,8,0,,,,,,,,,,,,,,,,,,,,,,,,,,,,,,,,,,,,,,,0.25,stop,crossblue.gif,None,0,,3,1.85442113876,3,6,4,0,0,0.00095009803772,0.515950918198,0.766253948212,,,,,,,LearningTask,,,59.9366095543,1,2015_May_26_1118,1,
,,,m,0,200,,,,,,,,,,4,1,9,1,,,,,,,,,,,,,,,,,,,,,,,,,,,,,,,,,,,,,,,-1,go,invertedtrianglegreen.gif,m,1,0.550925016403,4,2.40534615517,4,6,4,0,0,0.000959873199463,0.51593208313,,,,,,,,LearningTask,,,59.9366095543,1,2015_May_26_1118,1,
,,,,,,,,,,,,,,,,,,,,,,,,,,,,,,,,,,,,,,,,,,,,,,,,,,,,,,,,,,,,,,,,,,,,,,,,,space,7.95623612404,,,,,LearningTask,,,59.9366095543,1,2015_May_26_1118,1,
,,,,,,,,,,,,,,,,,,,,,,,,,,,,,,,,,,,,,,,,,,,,,,,,,,a,9.71037101746,,,,,,,,,,,,,,,,,,,,,,,,,,,,LearningTask,,,59.9366095543,1,2015_May_26_1118,1,
-200,q,200,,,,,,,,,,,,,,,,,0,0,0,0,0,0,0,1,0,0,0,0,None,,,,,,,,,,,,,,,,,,,,,q,1,0.417466878891,0.5006711483,0.000910997390747,,,,,,,,,,,,,,,,,,,0.33,,,,LearningTask,,,59.9366095543,1,2015_May_26_1118,1,
-200,q,200,,,,,,,,,,,,,,,,,0,0,0,0,0,0,0,1,,,,,,,,,,,,,,,,,,,,,,,,,,,,,,,,,,,,,,,,,,,,,,,,,,,,,LearningTask,,,59.9366095543,1,2015_May_26_1118,1,
200,w,200,,,,,,,,,,,,,,,,,0,0,0,0,0,1,1,0,0,0,0,0,None,,,,,,,,,,,,,,,,,,,,,w,1,0.367649078369,0.506861925125,0.000946044921875,,,,,,,,,,,,,,,,,,,1.84,,,,LearningTask,,,59.9366095543,1,2015_May_26_1118,1,
200,w,200,,,,,,,,,,,,,,,,,0,0,0,0,0,1,1,0,,,,,,,,,,,,,,,,,,,,,,,,,,,,,,,,,,,,,,,,,,,,,,,,,,,,,LearningTask,,,59.9366095543,1,2015_May_26_1118,1,
-200,a,-200,,,,,,,,,,,,,,,,,0,0,0,0,0,2,2,3,0,0,0,0,None,,,,,,,,,,,,,,,,,,,,,a,1,0.384339094162,0.502496004105,0.000891923904419,,,,,,,,,,,,,,,,,,,3.83,,,,LearningTask,,,59.9366095543,1,2015_May_26_1118,1,
-200,a,-200,,,,,,,,,,,,,,,,,0,0,0,0,0,2,2,3,,,,,,,,,,,,,,,,,,,,,,,,,,,,,,,,,,,,,,,,,,,,,,,,,,,,,LearningTask,,,59.9366095543,1,2015_May_26_1118,1,
200,s,-200,,,,,,,,,,,,,,,,,0,0,0,0,0,3,3,2,0,0,0,0,None,,,,,,,,,,,,,,,,,,,,,s,1,0.367936134338,0.511809825897,0.00088095664978,,,,,,,,,,,,,,,,,,,1.22,,,,LearningTask,,,59.9366095543,1,2015_May_26_1118,1,
200,s,-200,,,,,,,,,,,,,,,,,0,0,0,0,0,3,3,2,,,,,,,,,,,,,,,,,,,,,,,,,,,,,,,,,,,,,,,,,,,,,,,,,,,,,LearningTask,,,59.9366095543,1,2015_May_26_1118,1,
-200,q,200,,,,,,,,,,,,,,,,,0,0,0,0,1,0,4,1,0,0,0,0,None,,,,,,,,,,,,,,,,,,,,,q,1,0.368036031723,0.504344940186,0.000947952270508,,,,,,,,,,,,,,,,,,,1.17,,,,LearningTask,,,59.9366095543,1,2015_May_26_1118,1,
-200,q,200,,,,,,,,,,,,,,,,,0,0,0,0,1,0,4,1,,,,,,,,,,,,,,,,,,,,,,,,,,,,,,,,,,,,,,,,,,,,,,,,,,,,,LearningTask,,,59.9366095543,1,2015_May_26_1118,1,
200,s,-200,,,,,,,,,,,,,,,,,0,0,0,0,1,1,5,2,0,0,0,0,None,,,,,,,,,,,,,,,,,,,,,s,1,0.384566068649,0.51056098938,0.000895023345947,,,,,,,,,,,,,,,,,,,2.09,,,,LearningTask,,,59.9366095543,1,2015_May_26_1118,1,
200,s,-200,,,,,,,,,,,,,,,,,0,0,0,0,1,1,5,2,,,,,,,,,,,,,,,,,,,,,,,,,,,,,,,,,,,,,,,,,,,,,,,,,,,,,LearningTask,,,59.9366095543,1,2015_May_26_1118,1,
-200,a,-200,,,,,,,,,,,,,,,,,0,0,0,0,1,2,6,3,0,0,0,0,None,,,,,,,,,,,,,,,,,,,,,a,1,0.450772047043,0.506703138351,0.000883102416992,,,,,,,,,,,,,,,,,,,1.24,,,,LearningTask,,,59.9366095543,1,2015_May_26_1118,1,
-200,a,-200,,,,,,,,,,,,,,,,,0,0,0,0,1,2,6,3,,,,,,,,,,,,,,,,,,,,,,,,,,,,,,,,,,,,,,,,,,,,,,,,,,,,,LearningTask,,,59.9366095543,1,2015_May_26_1118,1,
200,w,200,,,,,,,,,,,,,,,,,0,0,0,0,1,3,7,0,0,0,0,0,None,,,,,,,,,,,,,,,,,,,,,w,1,0.317317008972,0.515869855881,0.000890016555786,,,,,,,,,,,,,,,,,,,3.95,,,,LearningTask,,,59.9366095543,1,2015_May_26_1118,1,
200,w,200,,,,,,,,,,,,,,,,,0,0,0,0,1,3,7,0,,,,,,,,,,,,,,,,,,,,,,,,,,,,,,,,,,,,,,,,,,,,,,,,,,,,,LearningTask,,,59.9366095543,1,2015_May_26_1118,1,
-200,q,200,,,,,,,,,,,,,,,,,0,0,0,0,2,0,8,1,0,0,0,0,None,,,,,,,,,,,,,,,,,,,,,q,1,0.384547948837,0.508156061172,0.000903129577637,,,,,,,,,,,,,,,,,,,0.87,,,,LearningTask,,,59.9366095543,1,2015_May_26_1118,1,
-200,q,200,,,,,,,,,,,,,,,,,0,0,0,0,2,0,8,1,,,,,,,,,,,,,,,,,,,,,,,,,,,,,,,,,,,,,,,,,,,,,,,,,,,,,LearningTask,,,59.9366095543,1,2015_May_26_1118,1,
-200,q,200,,,,,,,,,,,,,,,,,0,0,0,0,2,1,9,1,0,0,0,0,None,,,,,,,,,,,,,,,,,,,,,q,1,0.400884866714,0.500150918961,0.000881910324097,,,,,,,,,,,,,,,,,,,1.12,,,,LearningTask,,,59.9366095543,1,2015_May_26_1118,1,
-200,q,200,,,,,,,,,,,,,,,,,0,0,0,0,2,1,9,1,,,,,,,,,,,,,,,,,,,,,,,,,,,,,,,,,,,,,,,,,,,,,,,,,,,,,LearningTask,,,59.9366095543,1,2015_May_26_1118,1,
-200,q,200,,,,,,,,,,,,,,,,,0,0,0,0,2,2,10,1,0,0,0,0,None,,,,,,,,,,,,,,,,,,,,,q,1,0.434991121292,0.510504007339,0.000925064086914,,,,,,,,,,,,,,,,,,,0.76,,,,LearningTask,,,59.9366095543,1,2015_May_26_1118,1,
-200,q,200,,,,,,,,,,,,,,,,,0,0,0,0,2,2,10,1,,,,,,,,,,,,,,,,,,,,,,,,,,,,,,,,,,,,,,,,,,,,,,,,,,,,,LearningTask,,,59.9366095543,1,2015_May_26_1118,1,
200,w,200,,,,,,,,,,,,,,,,,0,0,0,0,2,3,11,0,0,0,0,0,None,,,,,,,,,,,,,,,,,,,,,w,1,0.417965888977,0.500304937363,0.000893115997314,,,,,,,,,,,,,,,,,,,1.04,,,,LearningTask,,,59.9366095543,1,2015_May_26_1118,1,
200,w,200,,,,,,,,,,,,,,,,,0,0,0,0,2,3,11,0,,,,,,,,,,,,,,,,,,,,,,,,,,,,,,,,,,,,,,,,,,,,,,,,,,,,,LearningTask,,,59.9366095543,1,2015_May_26_1118,1,
200,s,-200,,,,,,,,,,,,,,,,,0,0,0,0,3,0,12,2,0,0,0,0,None,,,,,,,,,,,,,,,,,,,,,s,1,0.400686979294,0.512368917465,0.000886917114258,,,,,,,,,,,,,,,,,,,0.98,,,,LearningTask,,,59.9366095543,1,2015_May_26_1118,1,
200,s,-200,,,,,,,,,,,,,,,,,0,0,0,0,3,0,12,2,,,,,,,,,,,,,,,,,,,,,,,,,,,,,,,,,,,,,,,,,,,,,,,,,,,,,LearningTask,,,59.9366095543,1,2015_May_26_1118,1,
200,s,-200,,,,,,,,,,,,,,,,,0,0,0,0,3,1,13,2,0,0,0,0,None,,,,,,,,,,,,,,,,,,,,,s,1,0.451060056686,0.503927946091,0.000961065292358,,,,,,,,,,,,,,,,,,,0.65,,,,LearningTask,,,59.9366095543,1,2015_May_26_1118,1,
200,s,-200,,,,,,,,,,,,,,,,,0,0,0,0,3,1,13,2,,,,,,,,,,,,,,,,,,,,,,,,,,,,,,,,,,,,,,,,,,,,,,,,,,,,,LearningTask,,,59.9366095543,1,2015_May_26_1118,1,
-200,q,200,,,,,,,,,,,,,,,,,0,0,0,0,3,2,14,1,0,0,0,0,None,,,,,,,,,,,,,,,,,,,,,q,1,0.333898067474,0.514737129211,0.000899076461792,,,,,,,,,,,,,,,,,,,4.17,,,,LearningTask,,,59.9366095543,1,2015_May_26_1118,1,
-200,q,200,,,,,,,,,,,,,,,,,0,0,0,0,3,2,14,1,,,,,,,,,,,,,,,,,,,,,,,,,,,,,,,,,,,,,,,,,,,,,,,,,,,,,LearningTask,,,59.9366095543,1,2015_May_26_1118,1,
200,w,200,,,,,,,,,,,,,,,,,0,0,0,0,3,3,15,0,0,0,0,0,None,,,,,,,,,,,,,,,,,,,,,w,1,0.417520046234,0.506561040878,0.000936985015869,,,,,,,,,,,,,,,,,,,0.41,,,,LearningTask,,,59.9366095543,1,2015_May_26_1118,1,
200,w,200,,,,,,,,,,,,,,,,,0,0,0,0,3,3,15,0,,,,,,,,,,,,,,,,,,,,,,,,,,,,,,,,,,,,,,,,,,,,,,,,,,,,,LearningTask,,,59.9366095543,1,2015_May_26_1118,1,
-200,q,200,,,,,,,,,,,,,,,,,0,0,0,0,4,0,16,1,0,0,0,0,None,,,,,,,,,,,,,,,,,,,,,q,1,0.351357936859,0.512197971344,0.000888109207153,,,,,,,,,,,,,,,,,,,0.53,,,,LearningTask,,,59.9366095543,1,2015_May_26_1118,1,
-200,q,200,,,,,,,,,,,,,,,,,0,0,0,0,4,0,16,1,,,,,,,,,,,,,,,,,,,,,,,,,,,,,,,,,,,,,,,,,,,,,,,,,,,,,LearningTask,,,59.9366095543,1,2015_May_26_1118,1,
200,w,200,,,,,,,,,,,,,,,,,0,0,0,0,4,1,17,0,0,0,0,0,None,,,,,,,,,,,,,,,,,,,,,w,1,0.417752981186,0.508727073669,0.000899076461792,,,,,,,,,,,,,,,,,,,0.31,,,,LearningTask,,,59.9366095543,1,2015_May_26_1118,1,
200,w,200,,,,,,,,,,,,,,,,,0,0,0,0,4,1,17,0,,,,,,,,,,,,,,,,,,,,,,,,,,,,,,,,,,,,,,,,,,,,,,,,,,,,,LearningTask,,,59.9366095543,1,2015_May_26_1118,1,
-200,q,200,,,,,,,,,,,,,,,,,0,0,0,0,4,2,18,1,0,0,0,0,None,,,,,,,,,,,,,,,,,,,,,q,1,0.350587844849,0.501057863235,0.000897884368896,,,,,,,,,,,,,,,,,,,2.15,,,,LearningTask,,,59.9366095543,1,2015_May_26_1118,1,
-200,q,200,,,,,,,,,,,,,,,,,0,0,0,0,4,2,18,1,,,,,,,,,,,,,,,,,,,,,,,,,,,,,,,,,,,,,,,,,,,,,,,,,,,,,LearningTask,,,59.9366095543,1,2015_May_26_1118,1,
200,s,-200,,,,,,,,,,,,,,,,,0,0,0,0,4,3,19,2,0,0,0,0,None,,,,,,,,,,,,,,,,,,,,,s,1,0.417621135712,0.510924100876,0.000897169113159,,,,,,,,,,,,,,,,,,,3.96,,,,LearningTask,,,59.9366095543,1,2015_May_26_1118,1,
200,s,-200,,,,,,,,,,,,,,,,,0,0,0,0,4,3,19,2,,,,,,,,,,,,,,,,,,,,,,,,,,,,,,,,,,,,,,,,,,,,,,,,,,,,,LearningTask,,,59.9366095543,1,2015_May_26_1118,1,
-200,a,-200,,,,,,,,,,,,,,,,,0,0,0,0,5,0,20,3,0,0,0,0,None,,,,,,,,,,,,,,,,,,,,,a,1,0.43457698822,0.513771057129,0.000936985015869,,,,,,,,,,,,,,,,,,,4.19,,,,LearningTask,,,59.9366095543,1,2015_May_26_1118,1,
-200,a,-200,,,,,,,,,,,,,,,,,0,0,0,0,5,0,20,3,,,,,,,,,,,,,,,,,,,,,,,,,,,,,,,,,,,,,,,,,,,,,,,,,,,,,LearningTask,,,59.9366095543,1,2015_May_26_1118,1,
-200,q,200,,,,,,,,,,,,,,,,,0,0,0,0,5,1,21,1,0,0,0,0,None,,,,,,,,,,,,,,,,,,,,,q,1,0.334386110306,0.508069992065,0.000899076461792,,,,,,,,,,,,,,,,,,,2.2,,,,LearningTask,,,59.9366095543,1,2015_May_26_1118,1,
-200,q,200,,,,,,,,,,,,,,,,,0,0,0,0,5,1,21,1,,,,,,,,,,,,,,,,,,,,,,,,,,,,,,,,,,,,,,,,,,,,,,,,,,,,,LearningTask,,,59.9366095543,1,2015_May_26_1118,1,
200,w,200,,,,,,,,,,,,,,,,,0,0,0,0,5,2,22,0,0,0,0,0,None,,,,,,,,,,,,,,,,,,,,,w,1,0.367654085159,0.505183935165,0.000892877578735,,,,,,,,,,,,,,,,,,,3.99,,,,LearningTask,,,59.9366095543,1,2015_May_26_1118,1,
200,w,200,,,,,,,,,,,,,,,,,0,0,0,0,5,2,22,0,,,,,,,,,,,,,,,,,,,,,,,,,,,,,,,,,,,,,,,,,,,,,,,,,,,,,LearningTask,,,59.9366095543,1,2015_May_26_1118,1,
200,w,200,,,,,,,,,,,,,,,,,0,0,0,0,5,3,23,0,0,0,0,0,None,,,,,,,,,,,,,,,,,,,,,w,1,0.384793043137,0.515751123428,0.000892162322998,,,,,,,,,,,,,,,,,,,3.98,,,,LearningTask,,,59.9366095543,1,2015_May_26_1118,1,
200,w,200,,,,,,,,,,,,,,,,,0,0,0,0,5,3,23,0,,,,,,,,,,,,,,,,,,,,,,,,,,,,,,,,,,,,,,,,,,,,,,,,,,,,,LearningTask,,,59.9366095543,1,2015_May_26_1118,1,
-200,q,200,,,,,,,,,,,,,,,,,0,0,0,0,6,0,24,1,0,0,0,0,None,,,,,,,,,,,,,,,,,,,,,q,1,0.334003925323,0.505785942078,0.000883817672729,,,,,,,,,,,,,,,,,,,1.91,,,,LearningTask,,,59.9366095543,1,2015_May_26_1118,1,
-200,q,200,,,,,,,,,,,,,,,,,0,0,0,0,6,0,24,1,,,,,,,,,,,,,,,,,,,,,,,,,,,,,,,,,,,,,,,,,,,,,,,,,,,,,LearningTask,,,59.9366095543,1,2015_May_26_1118,1,
-200,a,-200,,,,,,,,,,,,,,,,,0,0,0,0,6,1,25,3,0,0,0,0,None,,,,,,,,,,,,,,,,,,,,,a,1,0.434048175812,0.513772964478,0.000942945480347,,,,,,,,,,,,,,,,,,,1.22,,,,LearningTask,,,59.9366095543,1,2015_May_26_1118,1,
-200,a,-200,,,,,,,,,,,,,,,,,0,0,0,0,6,1,25,3,,,,,,,,,,,,,,,,,,,,,,,,,,,,,,,,,,,,,,,,,,,,,,,,,,,,,LearningTask,,,59.9366095543,1,2015_May_26_1118,1,
-200,q,200,,,,,,,,,,,,,,,,,0,0,0,0,6,2,26,1,0,0,0,0,None,,,,,,,,,,,,,,,,,,,,,q,1,0.367764949799,0.50749707222,0.000895977020264,,,,,,,,,,,,,,,,,,,0.79,,,,LearningTask,,,59.9366095543,1,2015_May_26_1118,1,
-200,q,200,,,,,,,,,,,,,,,,,0,0,0,0,6,2,26,1,,,,,,,,,,,,,,,,,,,,,,,,,,,,,,,,,,,,,,,,,,,,,,,,,,,,,LearningTask,,,59.9366095543,1,2015_May_26_1118,1,
200,w,200,,,,,,,,,,,,,,,,,0,0,0,0,6,3,27,0,0,0,0,0,None,,,,,,,,,,,,,,,,,,,,,w,1,0.367293119431,0.502948045731,0.000898122787476,,,,,,,,,,,,,,,,,,,1.19,,,,LearningTask,,,59.9366095543,1,2015_May_26_1118,1,
200,w,200,,,,,,,,,,,,,,,,,0,0,0,0,6,3,27,0,,,,,,,,,,,,,,,,,,,,,,,,,,,,,,,,,,,,,,,,,,,,,,,,,,,,,LearningTask,,,59.9366095543,1,2015_May_26_1118,1,
-200,a,-200,,,,,,,,,,,,,,,,,0,0,0,0,7,0,28,3,0,0,0,0,None,,,,,,,,,,,,,,,,,,,,,a,1,0.335072040558,0.500231027603,0.000937938690186,,,,,,,,,,,,,,,,,,,0.76,,,,LearningTask,,,59.9366095543,1,2015_May_26_1118,1,
-200,a,-200,,,,,,,,,,,,,,,,,0,0,0,0,7,0,28,3,,,,,,,,,,,,,,,,,,,,,,,,,,,,,,,,,,,,,,,,,,,,,,,,,,,,,LearningTask,,,59.9366095543,1,2015_May_26_1118,1,
-200,q,200,,,,,,,,,,,,,,,,,0,0,0,0,7,1,29,1,0,0,0,0,None,,,,,,,,,,,,,,,,,,,,,q,1,0.334290027618,0.503495931625,0.000885009765625,,,,,,,,,,,,,,,,,,,1.13,,,,LearningTask,,,59.9366095543,1,2015_May_26_1118,1,
-200,q,200,,,,,,,,,,,,,,,,,0,0,0,0,7,1,29,1,,,,,,,,,,,,,,,,,,,,,,,,,,,,,,,,,,,,,,,,,,,,,,,,,,,,,LearningTask,,,59.9366095543,1,2015_May_26_1118,1,
-200,a,-200,,,,,,,,,,,,,,,,,0,0,0,0,7,2,30,3,0,0,0,0,None,,,,,,,,,,,,,,,,,,,,,a,1,0.384339094162,0.513175964355,0.000955820083618,,,,,,,,,,,,,,,,,,,0.75,,,,LearningTask,,,59.9366095543,1,2015_May_26_1118,1,
-200,a,-200,,,,,,,,,,,,,,,,,0,0,0,0,7,2,30,3,,,,,,,,,,,,,,,,,,,,,,,,,,,,,,,,,,,,,,,,,,,,,,,,,,,,,LearningTask,,,59.9366095543,1,2015_May_26_1118,1,
200,s,-200,,,,,,,,,,,,,,,,,0,0,0,0,7,3,31,2,0,0,0,0,None,,,,,,,,,,,,,,,,,,,,,s,1,0.334279060364,0.500756025314,0.000933170318604,,,,,,,,,,,,,,,,,,,3.98,,,,LearningTask,,,59.9366095543,1,2015_May_26_1118,1,
200,s,-200,,,,,,,,,,,,,,,,,0,0,0,0,7,3,31,2,,,,,,,,,,,,,,,,,,,,,,,,,,,,,,,,,,,,,,,,,,,,,,,,,,,,,LearningTask,,,59.9366095543,1,2015_May_26_1118,1,
200,s,-200,,,,,,,,,,,,,,,,,0,0,0,0,8,0,32,2,0,0,0,0,None,,,,,,,,,,,,,,,,,,,,,s,1,0.417594194412,0.503772974014,0.000911951065063,,,,,,,,,,,,,,,,,,,0.33,,,,LearningTask,,,59.9366095543,1,2015_May_26_1118,1,
200,s,-200,,,,,,,,,,,,,,,,,0,0,0,0,8,0,32,2,,,,,,,,,,,,,,,,,,,,,,,,,,,,,,,,,,,,,,,,,,,,,,,,,,,,,LearningTask,,,59.9366095543,1,2015_May_26_1118,1,
-200,a,-200,,,,,,,,,,,,,,,,,0,0,0,0,8,1,33,3,0,0,0,0,None,,,,,,,,,,,,,,,,,,,,,a,1,0.41795706749,0.506731987,0.000936031341553,,,,,,,,,,,,,,,,,,,3.92,,,,LearningTask,,,59.9366095543,1,2015_May_26_1118,1,
-200,a,-200,,,,,,,,,,,,,,,,,0,0,0,0,8,1,33,3,,,,,,,,,,,,,,,,,,,,,,,,,,,,,,,,,,,,,,,,,,,,,,,,,,,,,LearningTask,,,59.9366095543,1,2015_May_26_1118,1,
-200,a,-200,,,,,,,,,,,,,,,,,0,0,0,0,8,2,34,3,0,0,0,0,None,,,,,,,,,,,,,,,,,,,,,a,1,0.40073299408,0.511780977249,0.000894784927368,,,,,,,,,,,,,,,,,,,4.23,,,,LearningTask,,,59.9366095543,1,2015_May_26_1118,1,
-200,a,-200,,,,,,,,,,,,,,,,,0,0,0,0,8,2,34,3,,,,,,,,,,,,,,,,,,,,,,,,,,,,,,,,,,,,,,,,,,,,,,,,,,,,,LearningTask,,,59.9366095543,1,2015_May_26_1118,1,
-200,q,200,,,,,,,,,,,,,,,,,0,0,0,0,8,3,35,1,0,0,0,0,None,,,,,,,,,,,,,,,,,,,,,q,1,0.367345094681,0.510902881622,0.000902891159058,,,,,,,,,,,,,,,,,,,1.95,,,,LearningTask,,,59.9366095543,1,2015_May_26_1118,1,
-200,q,200,,,,,,,,,,,,,,,,,0,0,0,0,8,3,35,1,,,,,,,,,,,,,,,,,,,,,,,,,,,,,,,,,,,,,,,,,,,,,,,,,,,,,LearningTask,,,59.9366095543,1,2015_May_26_1118,1,
200,s,-200,,,,,,,,,,,,,,,,,0,0,0,0,9,0,36,2,0,0,0,0,None,,,,,,,,,,,,,,,,,,,,,s,1,0.367532968521,0.514989852905,0.000941038131714,,,,,,,,,,,,,,,,,,,1.83,,,,LearningTask,,,59.9366095543,1,2015_May_26_1118,1,
200,s,-200,,,,,,,,,,,,,,,,,0,0,0,0,9,0,36,2,,,,,,,,,,,,,,,,,,,,,,,,,,,,,,,,,,,,,,,,,,,,,,,,,,,,,LearningTask,,,59.9366095543,1,2015_May_26_1118,1,
200,s,-200,,,,,,,,,,,,,,,,,0,0,0,0,9,1,37,2,0,0,0,0,None,,,,,,,,,,,,,,,,,,,,,s,1,0.367891073227,0.509416103363,0.000895023345947,,,,,,,,,,,,,,,,,,,1.81,,,,LearningTask,,,59.9366095543,1,2015_May_26_1118,1,
200,s,-200,,,,,,,,,,,,,,,,,0,0,0,0,9,1,37,2,,,,,,,,,,,,,,,,,,,,,,,,,,,,,,,,,,,,,,,,,,,,,,,,,,,,,LearningTask,,,59.9366095543,1,2015_May_26_1118,1,
200,w,200,,,,,,,,,,,,,,,,,0,0,0,0,9,2,38,0,0,0,0,0,None,,,,,,,,,,,,,,,,,,,,,w,1,0.401277065277,0.503093957901,0.000895977020264,,,,,,,,,,,,,,,,,,,0.25,,,,LearningTask,,,59.9366095543,1,2015_May_26_1118,1,
200,w,200,,,,,,,,,,,,,,,,,0,0,0,0,9,2,38,0,,,,,,,,,,,,,,,,,,,,,,,,,,,,,,,,,,,,,,,,,,,,,,,,,,,,,LearningTask,,,59.9366095543,1,2015_May_26_1118,1,
200,s,-200,,,,,,,,,,,,,,,,,0,0,0,0,9,3,39,2,0,0,0,0,None,,,,,,,,,,,,,,,,,,,,,s,1,0.350791931152,0.512783050537,0.000940084457397,,,,,,,,,,,,,,,,,,,3.82,,,,LearningTask,,,59.9366095543,1,2015_May_26_1118,1,
200,s,-200,,,,,,,,,,,,,,,,,0,0,0,0,9,3,39,2,,,,,,,,,,,,,,,,,,,,,,,,,,,,,,,,,,,,,,,,,,,,,,,,,,,,,LearningTask,,,59.9366095543,1,2015_May_26_1118,1,
200,w,200,,,,,,,,,,,,,,,,,0,0,0,0,10,0,40,0,0,0,0,0,None,,,,,,,,,,,,,,,,,,,,,w,1,0.383730888367,0.502690076828,0.000905990600586,,,,,,,,,,,,,,,,,,,1.21,,,,LearningTask,,,59.9366095543,1,2015_May_26_1118,1,
200,w,200,,,,,,,,,,,,,,,,,0,0,0,0,10,0,40,0,,,,,,,,,,,,,,,,,,,,,,,,,,,,,,,,,,,,,,,,,,,,,,,,,,,,,LearningTask,,,59.9366095543,1,2015_May_26_1118,1,
-200,a,-200,,,,,,,,,,,,,,,,,0,0,0,0,10,1,41,3,0,0,0,0,None,,,,,,,,,,,,,,,,,,,,,a,1,0.384112119675,0.516170978546,0.000898122787476,,,,,,,,,,,,,,,,,,,3.86,,,,LearningTask,,,59.9366095543,1,2015_May_26_1118,1,
-200,a,-200,,,,,,,,,,,,,,,,,0,0,0,0,10,1,41,3,,,,,,,,,,,,,,,,,,,,,,,,,,,,,,,,,,,,,,,,,,,,,,,,,,,,,LearningTask,,,59.9366095543,1,2015_May_26_1118,1,
200,s,-200,,,,,,,,,,,,,,,,,0,0,0,0,10,2,42,2,0,0,0,0,None,,,,,,,,,,,,,,,,,,,,,s,1,0.317409038544,0.508713006973,0.000893831253052,,,,,,,,,,,,,,,,,,,0.87,,,,LearningTask,,,59.9366095543,1,2015_May_26_1118,1,
200,s,-200,,,,,,,,,,,,,,,,,0,0,0,0,10,2,42,2,,,,,,,,,,,,,,,,,,,,,,,,,,,,,,,,,,,,,,,,,,,,,,,,,,,,,LearningTask,,,59.9366095543,1,2015_May_26_1118,1,
200,s,-200,,,,,,,,,,,,,,,,,0,0,0,0,10,3,43,2,0,0,0,0,None,,,,,,,,,,,,,,,,,,,,,s,1,0.400897979736,0.512787103653,0.000906944274902,,,,,,,,,,,,,,,,,,,2.01,,,,LearningTask,,,59.9366095543,1,2015_May_26_1118,1,
200,s,-200,,,,,,,,,,,,,,,,,0,0,0,0,10,3,43,2,,,,,,,,,,,,,,,,,,,,,,,,,,,,,,,,,,,,,,,,,,,,,,,,,,,,,LearningTask,,,59.9366095543,1,2015_May_26_1118,1,
-200,a,-200,,,,,,,,,,,,,,,,,0,0,0,0,11,0,44,3,0,0,0,0,None,,,,,,,,,,,,,,,,,,,,,a,1,0.451239109039,0.510421037674,0.000903129577637,,,,,,,,,,,,,,,,,,,0.64,,,,LearningTask,,,59.9366095543,1,2015_May_26_1118,1,
-200,a,-200,,,,,,,,,,,,,,,,,0,0,0,0,11,0,44,3,,,,,,,,,,,,,,,,,,,,,,,,,,,,,,,,,,,,,,,,,,,,,,,,,,,,,LearningTask,,,59.9366095543,1,2015_May_26_1118,1,
-200,q,200,,,,,,,,,,,,,,,,,0,0,0,0,11,1,45,1,0,0,0,0,None,,,,,,,,,,,,,,,,,,,,,q,1,0.367661237717,0.50185418129,0.000916004180908,,,,,,,,,,,,,,,,,,,4.24,,,,LearningTask,,,59.9366095543,1,2015_May_26_1118,1,
-200,q,200,,,,,,,,,,,,,,,,,0,0,0,0,11,1,45,1,,,,,,,,,,,,,,,,,,,,,,,,,,,,,,,,,,,,,,,,,,,,,,,,,,,,,LearningTask,,,59.9366095543,1,2015_May_26_1118,1,
-200,q,200,,,,,,,,,,,,,,,,,0,0,0,0,11,2,46,1,0,0,0,0,None,,,,,,,,,,,,,,,,,,,,,q,1,0.367959022522,0.509361982346,0.000946044921875,,,,,,,,,,,,,,,,,,,0.91,,,,LearningTask,,,59.9366095543,1,2015_May_26_1118,1,
-200,q,200,,,,,,,,,,,,,,,,,0,0,0,0,11,2,46,1,,,,,,,,,,,,,,,,,,,,,,,,,,,,,,,,,,,,,,,,,,,,,,,,,,,,,LearningTask,,,59.9366095543,1,2015_May_26_1118,1,
200,s,-200,,,,,,,,,,,,,,,,,0,0,0,0,11,3,47,2,0,0,0,0,None,,,,,,,,,,,,,,,,,,,,,s,1,0.500797986984,0.500251054764,0.000917911529541,,,,,,,,,,,,,,,,,,,3.98,,,,LearningTask,,,59.9366095543,1,2015_May_26_1118,1,
200,s,-200,,,,,,,,,,,,,,,,,0,0,0,0,11,3,47,2,,,,,,,,,,,,,,,,,,,,,,,,,,,,,,,,,,,,,,,,,,,,,,,,,,,,,LearningTask,,,59.9366095543,1,2015_May_26_1118,1,
200,s,-200,,,,,,,,,,,,,,,,,0,0,0,0,12,0,48,2,0,0,0,0,None,,,,,,,,,,,,,,,,,,,,,s,1,0.400235891342,0.514492988586,0.000893831253052,,,,,,,,,,,,,,,,,,,2.06,,,,LearningTask,,,59.9366095543,1,2015_May_26_1118,1,
200,s,-200,,,,,,,,,,,,,,,,,0,0,0,0,12,0,48,2,,,,,,,,,,,,,,,,,,,,,,,,,,,,,,,,,,,,,,,,,,,,,,,,,,,,,LearningTask,,,59.9366095543,1,2015_May_26_1118,1,
200,w,200,,,,,,,,,,,,,,,,,0,0,0,0,12,1,49,0,0,0,0,0,None,,,,,,,,,,,,,,,,,,,,,w,1,0.384552955627,0.503718852997,0.000935792922974,,,,,,,,,,,,,,,,,,,0.56,,,,LearningTask,,,59.9366095543,1,2015_May_26_1118,1,
200,w,200,,,,,,,,,,,,,,,,,0,0,0,0,12,1,49,0,,,,,,,,,,,,,,,,,,,,,,,,,,,,,,,,,,,,,,,,,,,,,,,,,,,,,LearningTask,,,59.9366095543,1,2015_May_26_1118,1,
200,w,200,,,,,,,,,,,,,,,,,0,0,0,0,12,2,50,0,0,0,0,0,None,,,,,,,,,,,,,,,,,,,,,w,1,0.40113902092,0.504832983017,0.000898122787476,,,,,,,,,,,,,,,,,,,1.84,,,,LearningTask,,,59.9366095543,1,2015_May_26_1118,1,
200,w,200,,,,,,,,,,,,,,,,,0,0,0,0,12,2,50,0,,,,,,,,,,,,,,,,,,,,,,,,,,,,,,,,,,,,,,,,,,,,,,,,,,,,,LearningTask,,,59.9366095543,1,2015_May_26_1118,1,
200,w,200,,,,,,,,,,,,,,,,,0,0,0,0,12,3,51,0,0,0,0,0,None,,,,,,,,,,,,,,,,,,,,,w,1,0.400973081589,0.502485990524,0.000895977020264,,,,,,,,,,,,,,,,,,,3.83,,,,LearningTask,,,59.9366095543,1,2015_May_26_1118,1,
200,w,200,,,,,,,,,,,,,,,,,0,0,0,0,12,3,51,0,,,,,,,,,,,,,,,,,,,,,,,,,,,,,,,,,,,,,,,,,,,,,,,,,,,,,LearningTask,,,59.9366095543,1,2015_May_26_1118,1,
200,s,-200,,,,,,,,,,,,,,,,,0,0,0,0,13,0,52,2,0,0,0,0,None,,,,,,,,,,,,,,,,,,,,,s,1,0.384294986725,0.500690937042,0.000890970230103,,,,,,,,,,,,,,,,,,,0.7,,,,LearningTask,,,59.9366095543,1,2015_May_26_1118,1,
200,s,-200,,,,,,,,,,,,,,,,,0,0,0,0,13,0,52,2,,,,,,,,,,,,,,,,,,,,,,,,,,,,,,,,,,,,,,,,,,,,,,,,,,,,,LearningTask,,,59.9366095543,1,2015_May_26_1118,1,
-200,a,-200,,,,,,,,,,,,,,,,,0,0,0,0,13,1,53,3,0,0,0,0,None,,,,,,,,,,,,,,,,,,,,,a,1,0.401253938675,0.504879951477,0.000967025756836,,,,,,,,,,,,,,,,,,,4.11,,,,LearningTask,,,59.9366095543,1,2015_May_26_1118,1,
-200,a,-200,,,,,,,,,,,,,,,,,0,0,0,0,13,1,53,3,,,,,,,,,,,,,,,,,,,,,,,,,,,,,,,,,,,,,,,,,,,,,,,,,,,,,LearningTask,,,59.9366095543,1,2015_May_26_1118,1,
-200,q,200,,,,,,,,,,,,,,,,,0,0,0,0,13,2,54,1,0,0,0,0,None,,,,,,,,,,,,,,,,,,,,,q,1,0.35095000267,0.502597093582,0.000901222229004,,,,,,,,,,,,,,,,,,,1.83,,,,LearningTask,,,59.9366095543,1,2015_May_26_1118,1,
-200,q,200,,,,,,,,,,,,,,,,,0,0,0,0,13,2,54,1,,,,,,,,,,,,,,,,,,,,,,,,,,,,,,,,,,,,,,,,,,,,,,,,,,,,,LearningTask,,,59.9366095543,1,2015_May_26_1118,1,
-200,q,200,,,,,,,,,,,,,,,,,0,0,0,0,13,3,55,1,0,0,0,0,None,,,,,,,,,,,,,,,,,,,,,q,1,0.384078979492,0.513094186783,0.000905990600586,,,,,,,,,,,,,,,,,,,4.23,,,,LearningTask,,,59.9366095543,1,2015_May_26_1118,1,
-200,q,200,,,,,,,,,,,,,,,,,0,0,0,0,13,3,55,1,,,,,,,,,,,,,,,,,,,,,,,,,,,,,,,,,,,,,,,,,,,,,,,,,,,,,LearningTask,,,59.9366095543,1,2015_May_26_1118,1,
-200,a,-200,,,,,,,,,,,,,,,,,0,0,0,0,14,0,56,3,0,0,0,0,None,,,,,,,,,,,,,,,,,,,,,a,1,0.450893878937,0.503690958023,0.000880002975464,,,,,,,,,,,,,,,,,,,0.92,,,,LearningTask,,,59.9366095543,1,2015_May_26_1118,1,
-200,a,-200,,,,,,,,,,,,,,,,,0,0,0,0,14,0,56,3,,,,,,,,,,,,,,,,,,,,,,,,,,,,,,,,,,,,,,,,,,,,,,,,,,,,,LearningTask,,,59.9366095543,1,2015_May_26_1118,1,
200,s,-200,,,,,,,,,,,,,,,,,0,0,0,0,14,1,57,2,0,0,0,0,None,,,,,,,,,,,,,,,,,,,,,s,1,0.417491197586,0.514372110367,0.000900983810425,,,,,,,,,,,,,,,,,,,0.99,,,,LearningTask,,,59.9366095543,1,2015_May_26_1118,1,
200,s,-200,,,,,,,,,,,,,,,,,0,0,0,0,14,1,57,2,,,,,,,,,,,,,,,,,,,,,,,,,,,,,,,,,,,,,,,,,,,,,,,,,,,,,LearningTask,,,59.9366095543,1,2015_May_26_1118,1,
200,s,-200,,,,,,,,,,,,,,,,,0,0,0,0,14,2,58,2,0,0,0,0,None,,,,,,,,,,,,,,,,,,,,,s,1,0.400965213776,0.50377202034,0.000903129577637,,,,,,,,,,,,,,,,,,,4.21,,,,LearningTask,,,59.9366095543,1,2015_May_26_1118,1,
200,s,-200,,,,,,,,,,,,,,,,,0,0,0,0,14,2,58,2,,,,,,,,,,,,,,,,,,,,,,,,,,,,,,,,,,,,,,,,,,,,,,,,,,,,,LearningTask,,,59.9366095543,1,2015_May_26_1118,1,
-200,a,-200,,,,,,,,,,,,,,,,,0,0,0,0,14,3,59,3,0,0,0,0,None,,,,,,,,,,,,,,,,,,,,,a,1,0.384052038193,0.50439786911,0.000893831253052,,,,,,,,,,,,,,,,,,,2.04,,,,LearningTask,,,59.9366095543,1,2015_May_26_1118,1,
-200,a,-200,,,,,,,,,,,,,,,,,0,0,0,0,14,3,59,3,,,,,,,,,,,,,,,,,,,,,,,,,,,,,,,,,,,,,,,,,,,,,,,,,,,,,LearningTask,,,59.9366095543,1,2015_May_26_1118,1,
-200,a,-200,,,,,,,,,,,,,,,,,0,0,0,0,15,0,60,3,0,0,0,0,None,,,,,,,,,,,,,,,,,,,,,a,1,0.384007930756,0.507365942001,0.00090503692627,,,,,,,,,,,,,,,,,,,3.84,,,,LearningTask,,,59.9366095543,1,2015_May_26_1118,1,
-200,a,-200,,,,,,,,,,,,,,,,,0,0,0,0,15,0,60,3,,,,,,,,,,,,,,,,,,,,,,,,,,,,,,,,,,,,,,,,,,,,,,,,,,,,,LearningTask,,,59.9366095543,1,2015_May_26_1118,1,
-200,a,-200,,,,,,,,,,,,,,,,,0,0,0,0,15,1,61,3,0,0,0,0,None,,,,,,,,,,,,,,,,,,,,,a,1,0.601039171219,0.503195047379,0.000895023345947,,,,,,,,,,,,,,,,,,,2.11,,,,LearningTask,,,59.9366095543,1,2015_May_26_1118,1,
-200,a,-200,,,,,,,,,,,,,,,,,0,0,0,0,15,1,61,3,,,,,,,,,,,,,,,,,,,,,,,,,,,,,,,,,,,,,,,,,,,,,,,,,,,,,LearningTask,,,59.9366095543,1,2015_May_26_1118,1,
-200,q,200,,,,,,,,,,,,,,,,,0,0,0,0,15,2,62,1,0,0,0,0,None,,,,,,,,,,,,,,,,,,,,,q,1,0.367518901825,0.507401943207,0.000885009765625,,,,,,,,,,,,,,,,,,,2.02,,,,LearningTask,,,59.9366095543,1,2015_May_26_1118,1,
-200,q,200,,,,,,,,,,,,,,,,,0,0,0,0,15,2,62,1,,,,,,,,,,,,,,,,,,,,,,,,,,,,,,,,,,,,,,,,,,,,,,,,,,,,,LearningTask,,,59.9366095543,1,2015_May_26_1118,1,
-200,a,-200,,,,,,,,,,,,,,,,,0,0,0,0,15,3,63,3,0,0,0,0,None,,,,,,,,,,,,,,,,,,,,,a,1,0.334614992142,0.508552789688,0.00096583366394,,,,,,,,,,,,,,,,,,,2.19,,,,LearningTask,,,59.9366095543,1,2015_May_26_1118,1,
-200,a,-200,,,,,,,,,,,,,,,,,0,0,0,0,15,3,63,3,,,,,,,,,,,,,,,,,,,,,,,,,,,,,,,,,,,,,,,,,,,,,,,,,,,,,LearningTask,,,59.9366095543,1,2015_May_26_1118,1,
-200,q,200,,,,,,,,,,,,,,,,,0,0,0,0,16,0,64,1,0,0,0,0,None,,,,,,,,,,,,,,,,,,,,,q,1,0.367042064667,0.515473127365,0.000894069671631,,,,,,,,,,,,,,,,,,,1.9,,,,LearningTask,,,59.9366095543,1,2015_May_26_1118,1,
-200,q,200,,,,,,,,,,,,,,,,,0,0,0,0,16,0,64,1,,,,,,,,,,,,,,,,,,,,,,,,,,,,,,,,,,,,,,,,,,,,,,,,,,,,,LearningTask,,,59.9366095543,1,2015_May_26_1118,1,
200,w,200,,,,,,,,,,,,,,,,,0,0,0,0,16,1,65,0,0,0,0,0,None,,,,,,,,,,,,,,,,,,,,,w,1,0.434417009354,0.50567984581,0.000933885574341,,,,,,,,,,,,,,,,,,,0.88,,,,LearningTask,,,59.9366095543,1,2015_May_26_1118,1,
200,w,200,,,,,,,,,,,,,,,,,0,0,0,0,16,1,65,0,,,,,,,,,,,,,,,,,,,,,,,,,,,,,,,,,,,,,,,,,,,,,,,,,,,,,LearningTask,,,59.9366095543,1,2015_May_26_1118,1,
200,w,200,,,,,,,,,,,,,,,,,0,0,0,0,16,2,66,0,0,0,0,0,None,,,,,,,,,,,,,,,,,,,,,w,1,0.484352827072,0.512320995331,0.000930070877075,,,,,,,,,,,,,,,,,,,1.88,,,,LearningTask,,,59.9366095543,1,2015_May_26_1118,1,
200,w,200,,,,,,,,,,,,,,,,,0,0,0,0,16,2,66,0,,,,,,,,,,,,,,,,,,,,,,,,,,,,,,,,,,,,,,,,,,,,,,,,,,,,,LearningTask,,,59.9366095543,1,2015_May_26_1118,1,
200,s,-200,,,,,,,,,,,,,,,,,0,0,0,0,16,3,67,2,0,0,0,0,None,,,,,,,,,,,,,,,,,,,,,s,1,0.384273052216,0.505491018295,0.00089693069458,,,,,,,,,,,,,,,,,,,1.88,,,,LearningTask,,,59.9366095543,1,2015_May_26_1118,1,
200,s,-200,,,,,,,,,,,,,,,,,0,0,0,0,16,3,67,2,,,,,,,,,,,,,,,,,,,,,,,,,,,,,,,,,,,,,,,,,,,,,,,,,,,,,LearningTask,,,59.9366095543,1,2015_May_26_1118,1,
-200,a,-200,,,,,,,,,,,,,,,,,0,0,0,0,17,0,68,3,0,0,0,0,None,,,,,,,,,,,,,,,,,,,,,a,1,0.418058156967,0.512349128723,0.000956058502197,,,,,,,,,,,,,,,,,,,3.98,,,,LearningTask,,,59.9366095543,1,2015_May_26_1118,1,
-200,a,-200,,,,,,,,,,,,,,,,,0,0,0,0,17,0,68,3,,,,,,,,,,,,,,,,,,,,,,,,,,,,,,,,,,,,,,,,,,,,,,,,,,,,,LearningTask,,,59.9366095543,1,2015_May_26_1118,1,
200,w,200,,,,,,,,,,,,,,,,,0,0,0,0,17,1,69,0,0,0,0,0,None,,,,,,,,,,,,,,,,,,,,,w,1,0.401104927063,0.508209943771,0.000897884368896,,,,,,,,,,,,,,,,,,,3.8,,,,LearningTask,,,59.9366095543,1,2015_May_26_1118,1,
200,w,200,,,,,,,,,,,,,,,,,0,0,0,0,17,1,69,0,,,,,,,,,,,,,,,,,,,,,,,,,,,,,,,,,,,,,,,,,,,,,,,,,,,,,LearningTask,,,59.9366095543,1,2015_May_26_1118,1,
-200,q,200,,,,,,,,,,,,,,,,,0,0,0,0,17,2,70,1,0,0,0,0,None,,,,,,,,,,,,,,,,,,,,,q,1,0.418183803558,0.514099121094,0.000900030136108,,,,,,,,,,,,,,,,,,,1.06,,,,LearningTask,,,59.9366095543,1,2015_May_26_1118,1,
-200,q,200,,,,,,,,,,,,,,,,,0,0,0,0,17,2,70,1,,,,,,,,,,,,,,,,,,,,,,,,,,,,,,,,,,,,,,,,,,,,,,,,,,,,,LearningTask,,,59.9366095543,1,2015_May_26_1118,1,
-200,q,200,,,,,,,,,,,,,,,,,0,0,0,0,17,3,71,1,0,0,0,0,None,,,,,,,,,,,,,,,,,,,,,q,1,0.367337942123,0.512573957443,0.000921964645386,,,,,,,,,,,,,,,,,,,3.93,,,,LearningTask,,,59.9366095543,1,2015_May_26_1118,1,
-200,q,200,,,,,,,,,,,,,,,,,0,0,0,0,17,3,71,1,,,,,,,,,,,,,,,,,,,,,,,,,,,,,,,,,,,,,,,,,,,,,,,,,,,,,LearningTask,,,59.9366095543,1,2015_May_26_1118,1,
-200,a,-200,,,,,,,,,,,,,,,,,0,0,0,0,18,0,72,3,0,0,0,0,None,,,,,,,,,,,,,,,,,,,,,a,1,0.384484052658,0.515367031097,0.000916004180908,,,,,,,,,,,,,,,,,,,1.96,,,,LearningTask,,,59.9366095543,1,2015_May_26_1118,1,
-200,a,-200,,,,,,,,,,,,,,,,,0,0,0,0,18,0,72,3,,,,,,,,,,,,,,,,,,,,,,,,,,,,,,,,,,,,,,,,,,,,,,,,,,,,,LearningTask,,,59.9366095543,1,2015_May_26_1118,1,
-200,a,-200,,,,,,,,,,,,,,,,,0,0,0,0,18,1,73,3,0,0,0,0,None,,,,,,,,,,,,,,,,,,,,,a,1,0.484791994095,0.513051986694,0.000960111618042,,,,,,,,,,,,,,,,,,,1.82,,,,LearningTask,,,59.9366095543,1,2015_May_26_1118,1,
-200,a,-200,,,,,,,,,,,,,,,,,0,0,0,0,18,1,73,3,,,,,,,,,,,,,,,,,,,,,,,,,,,,,,,,,,,,,,,,,,,,,,,,,,,,,LearningTask,,,59.9366095543,1,2015_May_26_1118,1,
200,w,200,,,,,,,,,,,,,,,,,0,0,0,0,18,2,74,0,0,0,0,0,None,,,,,,,,,,,,,,,,,,,,,w,1,0.400834083557,0.501873016357,0.000915050506592,,,,,,,,,,,,,,,,,,,0.33,,,,LearningTask,,,59.9366095543,1,2015_May_26_1118,1,
200,w,200,,,,,,,,,,,,,,,,,0,0,0,0,18,2,74,0,,,,,,,,,,,,,,,,,,,,,,,,,,,,,,,,,,,,,,,,,,,,,,,,,,,,,LearningTask,,,59.9366095543,1,2015_May_26_1118,1,
200,s,-200,,,,,,,,,,,,,,,,,0,0,0,0,18,3,75,2,0,0,0,0,None,,,,,,,,,,,,,,,,,,,,,s,1,0.384582042694,0.504513025284,0.000949144363403,,,,,,,,,,,,,,,,,,,4.1,,,,LearningTask,,,59.9366095543,1,2015_May_26_1118,1,
200,s,-200,,,,,,,,,,,,,,,,,0,0,0,0,18,3,75,2,,,,,,,,,,,,,,,,,,,,,,,,,,,,,,,,,,,,,,,,,,,,,,,,,,,,,LearningTask,,,59.9366095543,1,2015_May_26_1118,1,
200,s,-200,,,,,,,,,,,,,,,,,0,0,0,0,19,0,76,2,0,0,0,0,None,,,,,,,,,,,,,,,,,,,,,s,1,0.401178121567,0.500906229019,0.000893115997314,,,,,,,,,,,,,,,,,,,0.41,,,,LearningTask,,,59.9366095543,1,2015_May_26_1118,1,
200,s,-200,,,,,,,,,,,,,,,,,0,0,0,0,19,0,76,2,,,,,,,,,,,,,,,,,,,,,,,,,,,,,,,,,,,,,,,,,,,,,,,,,,,,,LearningTask,,,59.9366095543,1,2015_May_26_1118,1,
200,s,-200,,,,,,,,,,,,,,,,,0,0,0,0,19,1,77,2,0,0,0,0,None,,,,,,,,,,,,,,,,,,,,,s,1,0.384016990662,0.506955862045,0.000947952270508,,,,,,,,,,,,,,,,,,,1.81,,,,LearningTask,,,59.9366095543,1,2015_May_26_1118,1,
200,s,-200,,,,,,,,,,,,,,,,,0,0,0,0,19,1,77,2,,,,,,,,,,,,,,,,,,,,,,,,,,,,,,,,,,,,,,,,,,,,,,,,,,,,,LearningTask,,,59.9366095543,1,2015_May_26_1118,1,
-200,a,-200,,,,,,,,,,,,,,,,,0,0,0,0,19,2,78,3,0,0,0,0,None,,,,,,,,,,,,,,,,,,,,,a,1,0.40062212944,0.503975868225,0.000886917114258,,,,,,,,,,,,,,,,,,,2.23,,,,LearningTask,,,59.9366095543,1,2015_May_26_1118,1,
-200,a,-200,,,,,,,,,,,,,,,,,0,0,0,0,19,2,78,3,,,,,,,,,,,,,,,,,,,,,,,,,,,,,,,,,,,,,,,,,,,,,,,,,,,,,LearningTask,,,59.9366095543,1,2015_May_26_1118,1,
-200,q,200,,,,,,,,,,,,,,,,,0,0,0,0,19,3,79,1,0,0,0,0,None,,,,,,,,,,,,,,,,,,,,,q,1,0.417493104935,0.501845121384,0.000908136367798,,,,,,,,,,,,,,,,,,,3.87,,,,LearningTask,,,59.9366095543,1,2015_May_26_1118,1,
-200,q,200,,,,,,,,,,,,,,,,,0,0,0,0,19,3,79,1,,,,,,,,,,,,,,,,,,,,,,,,,,,,,,,,,,,,,,,,,,,,,,,,,,,,,LearningTask,,,59.9366095543,1,2015_May_26_1118,1,
200,w,200,,,,,,,,,,,,,,,,,0,0,0,0,20,0,80,0,0,0,0,0,None,,,,,,,,,,,,,,,,,,,,,w,1,0.384114980698,0.506157159805,0.000896215438843,,,,,,,,,,,,,,,,,,,1.98,,,,LearningTask,,,59.9366095543,1,2015_May_26_1118,1,
200,w,200,,,,,,,,,,,,,,,,,0,0,0,0,20,0,80,0,,,,,,,,,,,,,,,,,,,,,,,,,,,,,,,,,,,,,,,,,,,,,,,,,,,,,LearningTask,,,59.9366095543,1,2015_May_26_1118,1,
200,s,-200,,,,,,,,,,,,,,,,,0,0,0,0,20,1,81,2,0,0,0,0,None,,,,,,,,,,,,,,,,,,,,,s,1,0.384569883347,0.504453897476,0.000910043716431,,,,,,,,,,,,,,,,,,,4.05,,,,LearningTask,,,59.9366095543,1,2015_May_26_1118,1,
200,s,-200,,,,,,,,,,,,,,,,,0,0,0,0,20,1,81,2,,,,,,,,,,,,,,,,,,,,,,,,,,,,,,,,,,,,,,,,,,,,,,,,,,,,,LearningTask,,,59.9366095543,1,2015_May_26_1118,1,
200,w,200,,,,,,,,,,,,,,,,,0,0,0,0,20,2,82,0,0,0,0,0,None,,,,,,,,,,,,,,,,,,,,,w,1,0.501496076584,0.506728887558,0.00092601776123,,,,,,,,,,,,,,,,,,,0.37,,,,LearningTask,,,59.9366095543,1,2015_May_26_1118,1,
200,w,200,,,,,,,,,,,,,,,,,0,0,0,0,20,2,82,0,,,,,,,,,,,,,,,,,,,,,,,,,,,,,,,,,,,,,,,,,,,,,,,,,,,,,LearningTask,,,59.9366095543,1,2015_May_26_1118,1,
-200,a,-200,,,,,,,,,,,,,,,,,0,0,0,0,20,3,83,3,0,0,0,0,None,,,,,,,,,,,,,,,,,,,,,a,1,0.450870990753,0.505910873413,0.000908851623535,,,,,,,,,,,,,,,,,,,0.27,,,,LearningTask,,,59.9366095543,1,2015_May_26_1118,1,
-200,a,-200,,,,,,,,,,,,,,,,,0,0,0,0,20,3,83,3,,,,,,,,,,,,,,,,,,,,,,,,,,,,,,,,,,,,,,,,,,,,,,,,,,,,,LearningTask,,,59.9366095543,1,2015_May_26_1118,1,
200,s,-200,,,,,,,,,,,,,,,,,0,0,0,0,21,0,84,2,0,0,0,0,None,,,,,,,,,,,,,,,,,,,,,s,1,0.417541980743,0.510606050491,0.00090503692627,,,,,,,,,,,,,,,,,,,3.81,,,,LearningTask,,,59.9366095543,1,2015_May_26_1118,1,
200,s,-200,,,,,,,,,,,,,,,,,0,0,0,0,21,0,84,2,,,,,,,,,,,,,,,,,,,,,,,,,,,,,,,,,,,,,,,,,,,,,,,,,,,,,LearningTask,,,59.9366095543,1,2015_May_26_1118,1,
200,s,-200,,,,,,,,,,,,,,,,,0,0,0,0,21,1,85,2,0,0,0,0,None,,,,,,,,,,,,,,,,,,,,,s,1,0.617506980896,0.509703874588,0.000883817672729,,,,,,,,,,,,,,,,,,,2.23,,,,LearningTask,,,59.9366095543,1,2015_May_26_1118,1,
200,s,-200,,,,,,,,,,,,,,,,,0,0,0,0,21,1,85,2,,,,,,,,,,,,,,,,,,,,,,,,,,,,,,,,,,,,,,,,,,,,,,,,,,,,,LearningTask,,,59.9366095543,1,2015_May_26_1118,1,
-200,a,-200,,,,,,,,,,,,,,,,,0,0,0,0,21,2,86,3,0,0,0,0,None,,,,,,,,,,,,,,,,,,,,,a,1,0.40128993988,0.516444206238,0.000894069671631,,,,,,,,,,,,,,,,,,,0.3,,,,LearningTask,,,59.9366095543,1,2015_May_26_1118,1,
-200,a,-200,,,,,,,,,,,,,,,,,0,0,0,0,21,2,86,3,,,,,,,,,,,,,,,,,,,,,,,,,,,,,,,,,,,,,,,,,,,,,,,,,,,,,LearningTask,,,59.9366095543,1,2015_May_26_1118,1,
200,w,200,,,,,,,,,,,,,,,,,0,0,0,0,21,3,87,0,0,0,0,0,None,,,,,,,,,,,,,,,,,,,,,w,1,0.484471082687,0.500779151917,0.000898122787476,,,,,,,,,,,,,,,,,,,0.61,,,,LearningTask,,,59.9366095543,1,2015_May_26_1118,1,
200,w,200,,,,,,,,,,,,,,,,,0,0,0,0,21,3,87,0,,,,,,,,,,,,,,,,,,,,,,,,,,,,,,,,,,,,,,,,,,,,,,,,,,,,,LearningTask,,,59.9366095543,1,2015_May_26_1118,1,
200,w,200,,,,,,,,,,,,,,,,,0,0,0,0,22,0,88,0,0,0,0,0,None,,,,,,,,,,,,,,,,,,,,,w,1,0.401301860809,0.513360023499,0.00092601776123,,,,,,,,,,,,,,,,,,,0.73,,,,LearningTask,,,59.9366095543,1,2015_May_26_1118,1,
200,w,200,,,,,,,,,,,,,,,,,0,0,0,0,22,0,88,0,,,,,,,,,,,,,,,,,,,,,,,,,,,,,,,,,,,,,,,,,,,,,,,,,,,,,LearningTask,,,59.9366095543,1,2015_May_26_1118,1,
200,w,200,,,,,,,,,,,,,,,,,0,0,0,0,22,1,89,0,0,0,0,0,None,,,,,,,,,,,,,,,,,,,,,w,1,0.451127052307,0.501007080078,0.000898122787476,,,,,,,,,,,,,,,,,,,2.06,,,,LearningTask,,,59.9366095543,1,2015_May_26_1118,1,
200,w,200,,,,,,,,,,,,,,,,,0,0,0,0,22,1,89,0,,,,,,,,,,,,,,,,,,,,,,,,,,,,,,,,,,,,,,,,,,,,,,,,,,,,,LearningTask,,,59.9366095543,1,2015_May_26_1118,1,
200,s,-200,,,,,,,,,,,,,,,,,0,0,0,0,22,2,90,2,0,0,0,0,None,,,,,,,,,,,,,,,,,,,,,s,1,0.384637832642,0.501749992371,0.000952005386353,,,,,,,,,,,,,,,,,,,1.13,,,,LearningTask,,,59.9366095543,1,2015_May_26_1118,1,
200,s,-200,,,,,,,,,,,,,,,,,0,0,0,0,22,2,90,2,,,,,,,,,,,,,,,,,,,,,,,,,,,,,,,,,,,,,,,,,,,,,,,,,,,,,LearningTask,,,59.9366095543,1,2015_May_26_1118,1,
-200,a,-200,,,,,,,,,,,,,,,,,0,0,0,0,22,3,91,3,0,0,0,0,None,,,,,,,,,,,,,,,,,,,,,a,1,0.451007127762,0.504925966263,0.000948905944824,,,,,,,,,,,,,,,,,,,4.13,,,,LearningTask,,,59.9366095543,1,2015_May_26_1118,1,
-200,a,-200,,,,,,,,,,,,,,,,,0,0,0,0,22,3,91,3,,,,,,,,,,,,,,,,,,,,,,,,,,,,,,,,,,,,,,,,,,,,,,,,,,,,,LearningTask,,,59.9366095543,1,2015_May_26_1118,1,
-200,a,-200,,,,,,,,,,,,,,,,,0,0,0,0,23,0,92,3,0,0,0,0,None,,,,,,,,,,,,,,,,,,,,,a,1,0.417485952377,0.507004976273,0.000952959060669,,,,,,,,,,,,,,,,,,,3.8,,,,LearningTask,,,59.9366095543,1,2015_May_26_1118,1,
-200,a,-200,,,,,,,,,,,,,,,,,0,0,0,0,23,0,92,3,,,,,,,,,,,,,,,,,,,,,,,,,,,,,,,,,,,,,,,,,,,,,,,,,,,,,LearningTask,,,59.9366095543,1,2015_May_26_1118,1,
200,w,200,,,,,,,,,,,,,,,,,0,0,0,0,23,1,93,0,0,0,0,0,None,,,,,,,,,,,,,,,,,,,,,w,1,0.450823068619,0.507169961929,0.000899076461792,,,,,,,,,,,,,,,,,,,1.2,,,,LearningTask,,,59.9366095543,1,2015_May_26_1118,1,
200,w,200,,,,,,,,,,,,,,,,,0,0,0,0,23,1,93,0,,,,,,,,,,,,,,,,,,,,,,,,,,,,,,,,,,,,,,,,,,,,,,,,,,,,,LearningTask,,,59.9366095543,1,2015_May_26_1118,1,
200,w,200,,,,,,,,,,,,,,,,,0,0,0,0,23,2,94,0,0,0,0,0,None,,,,,,,,,,,,,,,,,,,,,w,1,0.401147127151,0.502851009369,0.000907182693481,,,,,,,,,,,,,,,,,,,2.06,,,,LearningTask,,,59.9366095543,1,2015_May_26_1118,1,
200,w,200,,,,,,,,,,,,,,,,,0,0,0,0,23,2,94,0,,,,,,,,,,,,,,,,,,,,,,,,,,,,,,,,,,,,,,,,,,,,,,,,,,,,,LearningTask,,,59.9366095543,1,2015_May_26_1118,1,
-200,q,200,,,,,,,,,,,,,,,,,0,0,0,0,23,3,95,1,0,0,0,0,None,,,,,,,,,,,,,,,,,,,,,q,1,0.450803995132,0.513516902924,0.00089693069458,,,,,,,,,,,,,,,,,,,0.74,,,,LearningTask,,,59.9366095543,1,2015_May_26_1118,1,
-200,q,200,,,,,,,,,,,,,,,,,0,0,0,0,23,3,95,1,,,,,,,,,,,,,,,,,,,,,,,,,,,,,,,,,,,,,,,,,,,,,,,,,,,,,LearningTask,,,59.9366095543,1,2015_May_26_1118,1,
-200,q,200,,,,,,,,,,,,,,,,,0,0,0,0,24,0,96,1,0,0,0,0,None,,,,,,,,,,,,,,,,,,,,,q,1,0.450726032257,0.508085012436,0.000902891159058,,,,,,,,,,,,,,,,,,,2.12,,,,LearningTask,,,59.9366095543,1,2015_May_26_1118,1,
-200,q,200,,,,,,,,,,,,,,,,,0,0,0,0,24,0,96,1,,,,,,,,,,,,,,,,,,,,,,,,,,,,,,,,,,,,,,,,,,,,,,,,,,,,,LearningTask,,,59.9366095543,1,2015_May_26_1118,1,
-200,q,200,,,,,,,,,,,,,,,,,0,0,0,0,24,1,97,1,0,0,0,0,None,,,,,,,,,,,,,,,,,,,,,q,1,0.384319067001,0.512893915176,0.000900030136108,,,,,,,,,,,,,,,,,,,3.84,,,,LearningTask,,,59.9366095543,1,2015_May_26_1118,1,
-200,q,200,,,,,,,,,,,,,,,,,0,0,0,0,24,1,97,1,,,,,,,,,,,,,,,,,,,,,,,,,,,,,,,,,,,,,,,,,,,,,,,,,,,,,LearningTask,,,59.9366095543,1,2015_May_26_1118,1,
200,w,200,,,,,,,,,,,,,,,,,0,0,0,0,24,2,98,0,0,0,0,0,None,,,,,,,,,,,,,,,,,,,,,w,1,0.417577981949,0.502130031586,0.000900983810425,,,,,,,,,,,,,,,,,,,0.81,,,,LearningTask,,,59.9366095543,1,2015_May_26_1118,1,
200,w,200,,,,,,,,,,,,,,,,,0,0,0,0,24,2,98,0,,,,,,,,,,,,,,,,,,,,,,,,,,,,,,,,,,,,,,,,,,,,,,,,,,,,,LearningTask,,,59.9366095543,1,2015_May_26_1118,1,
-200,a,-200,,,,,,,,,,,,,,,,,0,0,0,0,24,3,99,3,0,0,0,0,None,,,,,,,,,,,,,,,,,,,,,a,1,0.50087594986,0.512986898422,0.000954866409302,,,,,,,,,,,,,,,,,,,0.36,,,,LearningTask,,,59.9366095543,1,2015_May_26_1118,1,
-200,a,-200,,,,,,,,,,,,,,,,,0,0,0,0,24,3,99,3,,,,,,,,,,,,,,,,,,,,,,,,,,,,,,,,,,,,,,,,,,,,,,,,,,,,,LearningTask,,,59.9366095543,1,2015_May_26_1118,1,
,,,,,,,,,,,,,,,,,,,0,0,0,0,,,,,,,,,,,,,,,,,,,,,,,,,,,,,,,,,,,,,,,,,,,,,,,,,,,,,,,,,LearningTask,,,59.9366095543,1,2015_May_26_1118,1,
200,s,-200,,,,,,,,,,,,,,,,,1,0,1,0,0,0,0,2,0,0,0,0,None,,,,,,,,,,,,,,,,,,,,,s,1,0.401391029358,0.511085033417,0.000890970230103,,,,,,,,,,,,,,,,,,,3.8,,,,LearningTask,,,59.9366095543,1,2015_May_26_1118,1,
200,s,-200,,,,,,,,,,,,,,,,,1,0,1,0,0,0,0,2,,,,,,,,,,,,,,,,,,,,,,,,,,,,,,,,,,,,,,,,,,,,,,,,,,,,,LearningTask,,,59.9366095543,1,2015_May_26_1118,1,
-200,q,200,,,,,,,,,,,,,,,,,1,0,1,0,0,1,1,1,0,0,0,0,None,,,,,,,,,,,,,,,,,,,,,q,1,0.417818069458,0.506325960159,0.000900983810425,,,,,,,,,,,,,,,,,,,1.01,,,,LearningTask,,,59.9366095543,1,2015_May_26_1118,1,
-200,q,200,,,,,,,,,,,,,,,,,1,0,1,0,0,1,1,1,,,,,,,,,,,,,,,,,,,,,,,,,,,,,,,,,,,,,,,,,,,,,,,,,,,,,LearningTask,,,59.9366095543,1,2015_May_26_1118,1,
200,w,200,,,,,,,,,,,,,,,,,1,0,1,0,0,2,2,0,0,0,0,0,None,,,,,,,,,,,,,,,,,,,,,w,1,0.367702007294,0.512367010117,0.00090503692627,,,,,,,,,,,,,,,,,,,0.34,,,,LearningTask,,,59.9366095543,1,2015_May_26_1118,1,
200,w,200,,,,,,,,,,,,,,,,,1,0,1,0,0,2,2,0,,,,,,,,,,,,,,,,,,,,,,,,,,,,,,,,,,,,,,,,,,,,,,,,,,,,,LearningTask,,,59.9366095543,1,2015_May_26_1118,1,
200,w,200,,,,,,,,,,,,,,,,,1,0,1,0,0,3,3,0,0,0,0,0,None,,,,,,,,,,,,,,,,,,,,,w,1,0.450707912445,0.509443998337,0.000899076461792,,,,,,,,,,,,,,,,,,,2.13,,,,LearningTask,,,59.9366095543,1,2015_May_26_1118,1,
200,w,200,,,,,,,,,,,,,,,,,1,0,1,0,0,3,3,0,,,,,,,,,,,,,,,,,,,,,,,,,,,,,,,,,,,,,,,,,,,,,,,,,,,,,LearningTask,,,59.9366095543,1,2015_May_26_1118,1,
200,s,-200,,,,,,,,,,,,,,,,,1,0,1,0,1,0,4,2,0,0,0,0,None,,,,,,,,,,,,,,,,,,,,,s,1,0.450552940369,0.504432201385,0.000900030136108,,,,,,,,,,,,,,,,,,,2.14,,,,LearningTask,,,59.9366095543,1,2015_May_26_1118,1,
200,s,-200,,,,,,,,,,,,,,,,,1,0,1,0,1,0,4,2,,,,,,,,,,,,,,,,,,,,,,,,,,,,,,,,,,,,,,,,,,,,,,,,,,,,,LearningTask,,,59.9366095543,1,2015_May_26_1118,1,
-200,a,-200,,,,,,,,,,,,,,,,,1,0,1,0,1,1,5,3,0,0,0,0,None,,,,,,,,,,,,,,,,,,,,,a,1,0.517604112625,0.502674102783,0.000998973846436,,,,,,,,,,,,,,,,,,,0.46,,,,LearningTask,,,59.9366095543,1,2015_May_26_1118,1,
-200,a,-200,,,,,,,,,,,,,,,,,1,0,1,0,1,1,5,3,,,,,,,,,,,,,,,,,,,,,,,,,,,,,,,,,,,,,,,,,,,,,,,,,,,,,LearningTask,,,59.9366095543,1,2015_May_26_1118,1,
-200,q,200,,,,,,,,,,,,,,,,,1,0,1,0,1,2,6,1,0,0,0,0,None,,,,,,,,,,,,,,,,,,,,,q,1,0.351058006287,0.504234790802,0.000931978225708,,,,,,,,,,,,,,,,,,,0.43,,,,LearningTask,,,59.9366095543,1,2015_May_26_1118,1,
-200,q,200,,,,,,,,,,,,,,,,,1,0,1,0,1,2,6,1,,,,,,,,,,,,,,,,,,,,,,,,,,,,,,,,,,,,,,,,,,,,,,,,,,,,,LearningTask,,,59.9366095543,1,2015_May_26_1118,1,
-200,q,200,,,,,,,,,,,,,,,,,1,0,1,0,1,3,7,1,0,0,0,0,None,,,,,,,,,,,,,,,,,,,,,q,1,0.36737704277,0.510097026825,0.000938892364502,,,,,,,,,,,,,,,,,,,3.94,,,,LearningTask,,,59.9366095543,1,2015_May_26_1118,1,
-200,q,200,,,,,,,,,,,,,,,,,1,0,1,0,1,3,7,1,,,,,,,,,,,,,,,,,,,,,,,,,,,,,,,,,,,,,,,,,,,,,,,,,,,,,LearningTask,,,59.9366095543,1,2015_May_26_1118,1,
-200,q,200,,,,,,,,,,,,,,,,,1,0,1,0,2,0,8,1,0,0,0,0,None,,,,,,,,,,,,,,,,,,,,,q,1,0.383950948715,0.51038312912,0.000899076461792,,,,,,,,,,,,,,,,,,,0.96,,,,LearningTask,,,59.9366095543,1,2015_May_26_1118,1,
-200,q,200,,,,,,,,,,,,,,,,,1,0,1,0,2,0,8,1,,,,,,,,,,,,,,,,,,,,,,,,,,,,,,,,,,,,,,,,,,,,,,,,,,,,,LearningTask,,,59.9366095543,1,2015_May_26_1118,1,
200,w,200,,,,,,,,,,,,,,,,,1,0,1,0,2,1,9,0,0,0,0,0,None,,,,,,,,,,,,,,,,,,,,,w,1,0.367609977722,0.509772062302,0.000991106033325,,,,,,,,,,,,,,,,,,,2.03,,,,LearningTask,,,59.9366095543,1,2015_May_26_1118,1,
200,w,200,,,,,,,,,,,,,,,,,1,0,1,0,2,1,9,0,,,,,,,,,,,,,,,,,,,,,,,,,,,,,,,,,,,,,,,,,,,,,,,,,,,,,LearningTask,,,59.9366095543,1,2015_May_26_1118,1,
-200,q,200,,,,,,,,,,,,,,,,,1,0,1,0,2,2,10,1,0,0,0,0,None,,,,,,,,,,,,,,,,,,,,,q,1,0.384039878845,0.503696918488,0.000916957855225,,,,,,,,,,,,,,,,,,,0.75,,,,LearningTask,,,59.9366095543,1,2015_May_26_1118,1,
-200,q,200,,,,,,,,,,,,,,,,,1,0,1,0,2,2,10,1,,,,,,,,,,,,,,,,,,,,,,,,,,,,,,,,,,,,,,,,,,,,,,,,,,,,,LearningTask,,,59.9366095543,1,2015_May_26_1118,1,
200,w,200,,,,,,,,,,,,,,,,,1,0,1,0,2,3,11,0,0,0,0,0,None,,,,,,,,,,,,,,,,,,,,,w,1,0.367491006851,0.507276058197,0.000900030136108,,,,,,,,,,,,,,,,,,,0.36,,,,LearningTask,,,59.9366095543,1,2015_May_26_1118,1,
200,w,200,,,,,,,,,,,,,,,,,1,0,1,0,2,3,11,0,,,,,,,,,,,,,,,,,,,,,,,,,,,,,,,,,,,,,,,,,,,,,,,,,,,,,LearningTask,,,59.9366095543,1,2015_May_26_1118,1,
200,s,-200,,,,,,,,,,,,,,,,,1,0,1,0,3,0,12,2,0,0,0,0,None,,,,,,,,,,,,,,,,,,,,,s,1,0.384422063828,0.516721963882,0.000890970230103,,,,,,,,,,,,,,,,,,,1.83,,,,LearningTask,,,59.9366095543,1,2015_May_26_1118,1,
200,s,-200,,,,,,,,,,,,,,,,,1,0,1,0,3,0,12,2,,,,,,,,,,,,,,,,,,,,,,,,,,,,,,,,,,,,,,,,,,,,,,,,,,,,,LearningTask,,,59.9366095543,1,2015_May_26_1118,1,
-200,q,200,,,,,,,,,,,,,,,,,1,0,1,0,3,1,13,1,0,0,0,0,None,,,,,,,,,,,,,,,,,,,,,q,1,0.317955970764,0.50555896759,0.00107383728027,,,,,,,,,,,,,,,,,,,0.78,,,,LearningTask,,,59.9366095543,1,2015_May_26_1118,1,
-200,q,200,,,,,,,,,,,,,,,,,1,0,1,0,3,1,13,1,,,,,,,,,,,,,,,,,,,,,,,,,,,,,,,,,,,,,,,,,,,,,,,,,,,,,LearningTask,,,59.9366095543,1,2015_May_26_1118,1,
-200,q,200,,,,,,,,,,,,,,,,,1,0,1,0,3,2,14,1,0,0,0,0,None,,,,,,,,,,,,,,,,,,,,,q,1,0.333867073059,0.514267921448,0.000893831253052,,,,,,,,,,,,,,,,,,,0.54,,,,LearningTask,,,59.9366095543,1,2015_May_26_1118,1,
-200,q,200,,,,,,,,,,,,,,,,,1,0,1,0,3,2,14,1,,,,,,,,,,,,,,,,,,,,,,,,,,,,,,,,,,,,,,,,,,,,,,,,,,,,,LearningTask,,,59.9366095543,1,2015_May_26_1118,1,
200,s,-200,,,,,,,,,,,,,,,,,1,0,1,0,3,3,15,2,0,0,0,0,None,,,,,,,,,,,,,,,,,,,,,s,1,0.567341089249,0.509342908859,0.000926971435547,,,,,,,,,,,,,,,,,,,2.08,,,,LearningTask,,,59.9366095543,1,2015_May_26_1118,1,
200,s,-200,,,,,,,,,,,,,,,,,1,0,1,0,3,3,15,2,,,,,,,,,,,,,,,,,,,,,,,,,,,,,,,,,,,,,,,,,,,,,,,,,,,,,LearningTask,,,59.9366095543,1,2015_May_26_1118,1,
200,w,200,,,,,,,,,,,,,,,,,1,0,1,0,4,0,16,0,0,0,0,0,None,,,,,,,,,,,,,,,,,,,,,w,1,0.467470169067,0.504590988159,0.0010199546814,,,,,,,,,,,,,,,,,,,3.95,,,,LearningTask,,,59.9366095543,1,2015_May_26_1118,1,
200,w,200,,,,,,,,,,,,,,,,,1,0,1,0,4,0,16,0,,,,,,,,,,,,,,,,,,,,,,,,,,,,,,,,,,,,,,,,,,,,,,,,,,,,,LearningTask,,,59.9366095543,1,2015_May_26_1118,1,
200,s,-200,,,,,,,,,,,,,,,,,1,0,1,0,4,1,17,2,0,0,0,0,None,,,,,,,,,,,,,,,,,,,,,s,1,0.38441491127,0.509856939316,0.000994920730591,,,,,,,,,,,,,,,,,,,4.02,,,,LearningTask,,,59.9366095543,1,2015_May_26_1118,1,
200,s,-200,,,,,,,,,,,,,,,,,1,0,1,0,4,1,17,2,,,,,,,,,,,,,,,,,,,,,,,,,,,,,,,,,,,,,,,,,,,,,,,,,,,,,LearningTask,,,59.9366095543,1,2015_May_26_1118,1,
200,s,-200,,,,,,,,,,,,,,,,,1,0,1,0,4,2,18,2,0,0,0,0,None,,,,,,,,,,,,,,,,,,,,,s,1,0.518404006958,0.504910230637,0.000937223434448,,,,,,,,,,,,,,,,,,,0.31,,,,LearningTask,,,59.9366095543,1,2015_May_26_1118,1,
200,s,-200,,,,,,,,,,,,,,,,,1,0,1,0,4,2,18,2,,,,,,,,,,,,,,,,,,,,,,,,,,,,,,,,,,,,,,,,,,,,,,,,,,,,,LearningTask,,,59.9366095543,1,2015_May_26_1118,1,
200,w,200,,,,,,,,,,,,,,,,,1,0,1,0,4,3,19,0,0,0,0,0,None,,,,,,,,,,,,,,,,,,,,,w,1,0.401156902313,0.516129970551,0.000908136367798,,,,,,,,,,,,,,,,,,,2.13,,,,LearningTask,,,59.9366095543,1,2015_May_26_1118,1,
200,w,200,,,,,,,,,,,,,,,,,1,0,1,0,4,3,19,0,,,,,,,,,,,,,,,,,,,,,,,,,,,,,,,,,,,,,,,,,,,,,,,,,,,,,LearningTask,,,59.9366095543,1,2015_May_26_1118,1,
200,s,-200,,,,,,,,,,,,,,,,,1,0,1,0,5,0,20,2,0,0,0,0,None,,,,,,,,,,,,,,,,,,,,,s,1,0.384091854095,0.503334999084,0.000877141952515,,,,,,,,,,,,,,,,,,,1.22,,,,LearningTask,,,59.9366095543,1,2015_May_26_1118,1,
200,s,-200,,,,,,,,,,,,,,,,,1,0,1,0,5,0,20,2,,,,,,,,,,,,,,,,,,,,,,,,,,,,,,,,,,,,,,,,,,,,,,,,,,,,,LearningTask,,,59.9366095543,1,2015_May_26_1118,1,
-200,q,200,,,,,,,,,,,,,,,,,1,0,1,0,5,1,21,1,0,0,0,0,None,,,,,,,,,,,,,,,,,,,,,q,1,0.367511987686,0.513336896896,0.000906944274902,,,,,,,,,,,,,,,,,,,1.15,,,,LearningTask,,,59.9366095543,1,2015_May_26_1118,1,
-200,q,200,,,,,,,,,,,,,,,,,1,0,1,0,5,1,21,1,,,,,,,,,,,,,,,,,,,,,,,,,,,,,,,,,,,,,,,,,,,,,,,,,,,,,LearningTask,,,59.9366095543,1,2015_May_26_1118,1,
-200,a,-200,,,,,,,,,,,,,,,,,1,0,1,0,5,2,22,3,0,0,0,0,None,,,,,,,,,,,,,,,,,,,,,a,1,0.417845010757,0.501713037491,0.000993967056274,,,,,,,,,,,,,,,,,,,1.06,,,,LearningTask,,,59.9366095543,1,2015_May_26_1118,1,
-200,a,-200,,,,,,,,,,,,,,,,,1,0,1,0,5,2,22,3,,,,,,,,,,,,,,,,,,,,,,,,,,,,,,,,,,,,,,,,,,,,,,,,,,,,,LearningTask,,,59.9366095543,1,2015_May_26_1118,1,
200,s,-200,,,,,,,,,,,,,,,,,1,0,1,0,5,3,23,2,0,0,0,0,None,,,,,,,,,,,,,,,,,,,,,s,1,0.367570161819,0.513916969299,0.000906944274902,,,,,,,,,,,,,,,,,,,0.81,,,,LearningTask,,,59.9366095543,1,2015_May_26_1118,1,
200,s,-200,,,,,,,,,,,,,,,,,1,0,1,0,5,3,23,2,,,,,,,,,,,,,,,,,,,,,,,,,,,,,,,,,,,,,,,,,,,,,,,,,,,,,LearningTask,,,59.9366095543,1,2015_May_26_1118,1,
-200,a,-200,,,,,,,,,,,,,,,,,1,0,1,0,6,0,24,3,0,0,0,0,None,,,,,,,,,,,,,,,,,,,,,a,1,0.400784015656,0.513563871384,0.000866889953613,,,,,,,,,,,,,,,,,,,0.84,,,,LearningTask,,,59.9366095543,1,2015_May_26_1118,1,
-200,a,-200,,,,,,,,,,,,,,,,,1,0,1,0,6,0,24,3,,,,,,,,,,,,,,,,,,,,,,,,,,,,,,,,,,,,,,,,,,,,,,,,,,,,,LearningTask,,,59.9366095543,1,2015_May_26_1118,1,
200,s,-200,,,,,,,,,,,,,,,,,1,0,1,0,6,1,25,2,0,0,0,0,None,,,,,,,,,,,,,,,,,,,,,s,1,0.384160041809,0.504822969437,0.000943899154663,,,,,,,,,,,,,,,,,,,1.97,,,,LearningTask,,,59.9366095543,1,2015_May_26_1118,1,
200,s,-200,,,,,,,,,,,,,,,,,1,0,1,0,6,1,25,2,,,,,,,,,,,,,,,,,,,,,,,,,,,,,,,,,,,,,,,,,,,,,,,,,,,,,LearningTask,,,59.9366095543,1,2015_May_26_1118,1,
-200,a,-200,,,,,,,,,,,,,,,,,1,0,1,0,6,2,26,3,0,0,0,0,None,,,,,,,,,,,,,,,,,,,,,a,1,0.434100866318,0.516009092331,0.000874996185303,,,,,,,,,,,,,,,,,,,0.47,,,,LearningTask,,,59.9366095543,1,2015_May_26_1118,1,
-200,a,-200,,,,,,,,,,,,,,,,,1,0,1,0,6,2,26,3,,,,,,,,,,,,,,,,,,,,,,,,,,,,,,,,,,,,,,,,,,,,,,,,,,,,,LearningTask,,,59.9366095543,1,2015_May_26_1118,1,
200,w,200,,,,,,,,,,,,,,,,,1,0,1,0,6,3,27,0,0,0,0,0,None,,,,,,,,,,,,,,,,,,,,,w,1,0.433896064758,0.514417886734,0.00091290473938,,,,,,,,,,,,,,,,,,,3.89,,,,LearningTask,,,59.9366095543,1,2015_May_26_1118,1,
200,w,200,,,,,,,,,,,,,,,,,1,0,1,0,6,3,27,0,,,,,,,,,,,,,,,,,,,,,,,,,,,,,,,,,,,,,,,,,,,,,,,,,,,,,LearningTask,,,59.9366095543,1,2015_May_26_1118,1,
-200,a,-200,,,,,,,,,,,,,,,,,1,0,1,0,7,0,28,3,0,0,0,0,None,,,,,,,,,,,,,,,,,,,,,a,1,0.417704105377,0.502737045288,0.000924825668335,,,,,,,,,,,,,,,,,,,0.76,,,,LearningTask,,,59.9366095543,1,2015_May_26_1118,1,
-200,a,-200,,,,,,,,,,,,,,,,,1,0,1,0,7,0,28,3,,,,,,,,,,,,,,,,,,,,,,,,,,,,,,,,,,,,,,,,,,,,,,,,,,,,,LearningTask,,,59.9366095543,1,2015_May_26_1118,1,
-200,a,-200,,,,,,,,,,,,,,,,,1,0,1,0,7,1,29,3,0,0,0,0,None,,,,,,,,,,,,,,,,,,,,,a,1,0.418042898178,0.500586032867,0.000877857208252,,,,,,,,,,,,,,,,,,,3.84,,,,LearningTask,,,59.9366095543,1,2015_May_26_1118,1,
-200,a,-200,,,,,,,,,,,,,,,,,1,0,1,0,7,1,29,3,,,,,,,,,,,,,,,,,,,,,,,,,,,,,,,,,,,,,,,,,,,,,,,,,,,,,LearningTask,,,59.9366095543,1,2015_May_26_1118,1,
200,w,200,,,,,,,,,,,,,,,,,1,0,1,0,7,2,30,0,0,0,0,0,None,,,,,,,,,,,,,,,,,,,,,w,1,0.417573928833,0.514621973038,0.00092601776123,,,,,,,,,,,,,,,,,,,0.73,,,,LearningTask,,,59.9366095543,1,2015_May_26_1118,1,
200,w,200,,,,,,,,,,,,,,,,,1,0,1,0,7,2,30,0,,,,,,,,,,,,,,,,,,,,,,,,,,,,,,,,,,,,,,,,,,,,,,,,,,,,,LearningTask,,,59.9366095543,1,2015_May_26_1118,1,
200,s,-200,,,,,,,,,,,,,,,,,1,0,1,0,7,3,31,2,0,0,0,0,None,,,,,,,,,,,,,,,,,,,,,s,1,0.467340946198,0.501012086868,0.000932931900024,,,,,,,,,,,,,,,,,,,0.91,,,,LearningTask,,,59.9366095543,1,2015_May_26_1118,1,
200,s,-200,,,,,,,,,,,,,,,,,1,0,1,0,7,3,31,2,,,,,,,,,,,,,,,,,,,,,,,,,,,,,,,,,,,,,,,,,,,,,,,,,,,,,LearningTask,,,59.9366095543,1,2015_May_26_1118,1,
200,w,200,,,,,,,,,,,,,,,,,1,0,1,0,8,0,32,0,0,0,0,0,None,,,,,,,,,,,,,,,,,,,,,w,1,0.467991113663,0.515220880508,0.000918865203857,,,,,,,,,,,,,,,,,,,4.0,,,,LearningTask,,,59.9366095543,1,2015_May_26_1118,1,
200,w,200,,,,,,,,,,,,,,,,,1,0,1,0,8,0,32,0,,,,,,,,,,,,,,,,,,,,,,,,,,,,,,,,,,,,,,,,,,,,,,,,,,,,,LearningTask,,,59.9366095543,1,2015_May_26_1118,1,
200,s,-200,,,,,,,,,,,,,,,,,1,0,1,0,8,1,33,2,0,0,0,0,None,,,,,,,,,,,,,,,,,,,,,s,1,0.434470891953,0.513369083405,0.000871181488037,,,,,,,,,,,,,,,,,,,2.15,,,,LearningTask,,,59.9366095543,1,2015_May_26_1118,1,
200,s,-200,,,,,,,,,,,,,,,,,1,0,1,0,8,1,33,2,,,,,,,,,,,,,,,,,,,,,,,,,,,,,,,,,,,,,,,,,,,,,,,,,,,,,LearningTask,,,59.9366095543,1,2015_May_26_1118,1,
-200,a,-200,,,,,,,,,,,,,,,,,1,0,1,0,8,2,34,3,0,0,0,0,None,,,,,,,,,,,,,,,,,,,,,a,1,0.451364040375,0.506181955338,0.000944852828979,,,,,,,,,,,,,,,,,,,4.15,,,,LearningTask,,,59.9366095543,1,2015_May_26_1118,1,
-200,a,-200,,,,,,,,,,,,,,,,,1,0,1,0,8,2,34,3,,,,,,,,,,,,,,,,,,,,,,,,,,,,,,,,,,,,,,,,,,,,,,,,,,,,,LearningTask,,,59.9366095543,1,2015_May_26_1118,1,
-200,q,200,,,,,,,,,,,,,,,,,1,0,1,0,8,3,35,1,0,0,0,0,None,,,,,,,,,,,,,,,,,,,,,q,1,0.350979804993,0.515152931213,0.000907897949219,,,,,,,,,,,,,,,,,,,0.39,,,,LearningTask,,,59.9366095543,1,2015_May_26_1118,1,
-200,q,200,,,,,,,,,,,,,,,,,1,0,1,0,8,3,35,1,,,,,,,,,,,,,,,,,,,,,,,,,,,,,,,,,,,,,,,,,,,,,,,,,,,,,LearningTask,,,59.9366095543,1,2015_May_26_1118,1,
-200,a,-200,,,,,,,,,,,,,,,,,1,0,1,0,9,0,36,3,0,0,0,0,None,,,,,,,,,,,,,,,,,,,,,a,1,0.434247970581,0.504641056061,0.000908136367798,,,,,,,,,,,,,,,,,,,0.91,,,,LearningTask,,,59.9366095543,1,2015_May_26_1118,1,
-200,a,-200,,,,,,,,,,,,,,,,,1,0,1,0,9,0,36,3,,,,,,,,,,,,,,,,,,,,,,,,,,,,,,,,,,,,,,,,,,,,,,,,,,,,,LearningTask,,,59.9366095543,1,2015_May_26_1118,1,
200,w,200,,,,,,,,,,,,,,,,,1,0,1,0,9,1,37,0,0,0,0,0,None,,,,,,,,,,,,,,,,,,,,,w,1,0.417884111404,0.509634017944,0.000884056091309,,,,,,,,,,,,,,,,,,,3.8,,,,LearningTask,,,59.9366095543,1,2015_May_26_1118,1,
200,w,200,,,,,,,,,,,,,,,,,1,0,1,0,9,1,37,0,,,,,,,,,,,,,,,,,,,,,,,,,,,,,,,,,,,,,,,,,,,,,,,,,,,,,LearningTask,,,59.9366095543,1,2015_May_26_1118,1,
200,w,200,,,,,,,,,,,,,,,,,1,0,1,0,9,2,38,0,0,0,0,0,None,,,,,,,,,,,,,,,,,,,,,w,1,0.417741775513,0.505613088608,0.000881910324097,,,,,,,,,,,,,,,,,,,4.06,,,,LearningTask,,,59.9366095543,1,2015_May_26_1118,1,
200,w,200,,,,,,,,,,,,,,,,,1,0,1,0,9,2,38,0,,,,,,,,,,,,,,,,,,,,,,,,,,,,,,,,,,,,,,,,,,,,,,,,,,,,,LearningTask,,,59.9366095543,1,2015_May_26_1118,1,
-200,q,200,,,,,,,,,,,,,,,,,1,0,1,0,9,3,39,1,0,0,0,0,None,,,,,,,,,,,,,,,,,,,,,q,1,0.584432125092,0.51567196846,0.000877857208252,,,,,,,,,,,,,,,,,,,0.55,,,,LearningTask,,,59.9366095543,1,2015_May_26_1118,1,
-200,q,200,,,,,,,,,,,,,,,,,1,0,1,0,9,3,39,1,,,,,,,,,,,,,,,,,,,,,,,,,,,,,,,,,,,,,,,,,,,,,,,,,,,,,LearningTask,,,59.9366095543,1,2015_May_26_1118,1,
200,w,200,,,,,,,,,,,,,,,,,1,0,1,0,10,0,40,0,0,0,0,0,None,,,,,,,,,,,,,,,,,,,,,w,1,0.401044130325,0.506087064743,0.000913143157959,,,,,,,,,,,,,,,,,,,2.05,,,,LearningTask,,,59.9366095543,1,2015_May_26_1118,1,
200,w,200,,,,,,,,,,,,,,,,,1,0,1,0,10,0,40,0,,,,,,,,,,,,,,,,,,,,,,,,,,,,,,,,,,,,,,,,,,,,,,,,,,,,,LearningTask,,,59.9366095543,1,2015_May_26_1118,1,
-200,q,200,,,,,,,,,,,,,,,,,1,0,1,0,10,1,41,1,0,0,0,0,None,,,,,,,,,,,,,,,,,,,,,q,1,0.483847141266,0.513943910599,0.000879049301147,,,,,,,,,,,,,,,,,,,0.65,,,,LearningTask,,,59.9366095543,1,2015_May_26_1118,1,
-200,q,200,,,,,,,,,,,,,,,,,1,0,1,0,10,1,41,1,,,,,,,,,,,,,,,,,,,,,,,,,,,,,,,,,,,,,,,,,,,,,,,,,,,,,LearningTask,,,59.9366095543,1,2015_May_26_1118,1,
200,w,200,,,,,,,,,,,,,,,,,1,0,1,0,10,2,42,0,0,0,0,0,None,,,,,,,,,,,,,,,,,,,,,w,1,0.45111489296,0.505686998367,0.000875949859619,,,,,,,,,,,,,,,,,,,1.1,,,,LearningTask,,,59.9366095543,1,2015_May_26_1118,1,
200,w,200,,,,,,,,,,,,,,,,,1,0,1,0,10,2,42,0,,,,,,,,,,,,,,,,,,,,,,,,,,,,,,,,,,,,,,,,,,,,,,,,,,,,,LearningTask,,,59.9366095543,1,2015_May_26_1118,1,
200,w,200,,,,,,,,,,,,,,,,,1,0,1,0,10,3,43,0,0,0,0,0,None,,,,,,,,,,,,,,,,,,,,,w,1,0.6347219944,0.516484975815,0.000883817672729,,,,,,,,,,,,,,,,,,,1.13,,,,LearningTask,,,59.9366095543,1,2015_May_26_1118,1,
200,w,200,,,,,,,,,,,,,,,,,1,0,1,0,10,3,43,0,,,,,,,,,,,,,,,,,,,,,,,,,,,,,,,,,,,,,,,,,,,,,,,,,,,,,LearningTask,,,59.9366095543,1,2015_May_26_1118,1,
200,w,200,,,,,,,,,,,,,,,,,1,0,1,0,11,0,44,0,0,0,0,0,None,,,,,,,,,,,,,,,,,,,,,w,1,0.383816957474,0.501451015472,0.000879049301147,,,,,,,,,,,,,,,,,,,3.96,,,,LearningTask,,,59.9366095543,1,2015_May_26_1118,1,
200,w,200,,,,,,,,,,,,,,,,,1,0,1,0,11,0,44,0,,,,,,,,,,,,,,,,,,,,,,,,,,,,,,,,,,,,,,,,,,,,,,,,,,,,,LearningTask,,,59.9366095543,1,2015_May_26_1118,1,
-200,q,200,,,,,,,,,,,,,,,,,1,0,1,0,11,1,45,1,0,0,0,0,None,,,,,,,,,,,,,,,,,,,,,q,1,0.36750793457,0.511779069901,0.000895977020264,,,,,,,,,,,,,,,,,,,0.91,,,,LearningTask,,,59.9366095543,1,2015_May_26_1118,1,
-200,q,200,,,,,,,,,,,,,,,,,1,0,1,0,11,1,45,1,,,,,,,,,,,,,,,,,,,,,,,,,,,,,,,,,,,,,,,,,,,,,,,,,,,,,LearningTask,,,59.9366095543,1,2015_May_26_1118,1,
-200,q,200,,,,,,,,,,,,,,,,,1,0,1,0,11,2,46,1,0,0,0,0,None,,,,,,,,,,,,,,,,,,,,,q,1,0.384793043137,0.512162923813,0.000871896743774,,,,,,,,,,,,,,,,,,,1.09,,,,LearningTask,,,59.9366095543,1,2015_May_26_1118,1,
-200,q,200,,,,,,,,,,,,,,,,,1,0,1,0,11,2,46,1,,,,,,,,,,,,,,,,,,,,,,,,,,,,,,,,,,,,,,,,,,,,,,,,,,,,,LearningTask,,,59.9366095543,1,2015_May_26_1118,1,
-200,a,-200,,,,,,,,,,,,,,,,,1,0,1,0,11,3,47,3,0,0,0,0,None,,,,,,,,,,,,,,,,,,,,,a,1,0.550961017609,0.513852834702,0.000933885574341,,,,,,,,,,,,,,,,,,,0.74,,,,LearningTask,,,59.9366095543,1,2015_May_26_1118,1,
-200,a,-200,,,,,,,,,,,,,,,,,1,0,1,0,11,3,47,3,,,,,,,,,,,,,,,,,,,,,,,,,,,,,,,,,,,,,,,,,,,,,,,,,,,,,LearningTask,,,59.9366095543,1,2015_May_26_1118,1,
-200,a,-200,,,,,,,,,,,,,,,,,1,0,1,0,12,0,48,3,0,0,0,0,None,,,,,,,,,,,,,,,,,,,,,a,1,0.484061956406,0.516540050507,0.000924110412598,,,,,,,,,,,,,,,,,,,2.02,,,,LearningTask,,,59.9366095543,1,2015_May_26_1118,1,
-200,a,-200,,,,,,,,,,,,,,,,,1,0,1,0,12,0,48,3,,,,,,,,,,,,,,,,,,,,,,,,,,,,,,,,,,,,,,,,,,,,,,,,,,,,,LearningTask,,,59.9366095543,1,2015_May_26_1118,1,
-200,a,-200,,,,,,,,,,,,,,,,,1,0,1,0,12,1,49,3,0,0,0,0,None,,,,,,,,,,,,,,,,,,,,,a,1,0.484658002853,0.505066156387,0.000913143157959,,,,,,,,,,,,,,,,,,,0.55,,,,LearningTask,,,59.9366095543,1,2015_May_26_1118,1,
-200,a,-200,,,,,,,,,,,,,,,,,1,0,1,0,12,1,49,3,,,,,,,,,,,,,,,,,,,,,,,,,,,,,,,,,,,,,,,,,,,,,,,,,,,,,LearningTask,,,59.9366095543,1,2015_May_26_1118,1,
200,s,-200,,,,,,,,,,,,,,,,,1,0,1,0,12,2,50,2,0,0,0,0,None,,,,,,,,,,,,,,,,,,,,,s,1,0.434359073639,0.513172864914,0.000874996185303,,,,,,,,,,,,,,,,,,,2.03,,,,LearningTask,,,59.9366095543,1,2015_May_26_1118,1,
200,s,-200,,,,,,,,,,,,,,,,,1,0,1,0,12,2,50,2,,,,,,,,,,,,,,,,,,,,,,,,,,,,,,,,,,,,,,,,,,,,,,,,,,,,,LearningTask,,,59.9366095543,1,2015_May_26_1118,1,
200,w,200,,,,,,,,,,,,,,,,,1,0,1,0,12,3,51,0,0,0,0,0,None,,,,,,,,,,,,,,,,,,,,,w,1,0.384207010269,0.509203910828,0.000927925109863,,,,,,,,,,,,,,,,,,,4.0,,,,LearningTask,,,59.9366095543,1,2015_May_26_1118,1,
200,w,200,,,,,,,,,,,,,,,,,1,0,1,0,12,3,51,0,,,,,,,,,,,,,,,,,,,,,,,,,,,,,,,,,,,,,,,,,,,,,,,,,,,,,LearningTask,,,59.9366095543,1,2015_May_26_1118,1,
-200,q,200,,,,,,,,,,,,,,,,,1,0,1,0,13,0,52,1,0,0,0,0,None,,,,,,,,,,,,,,,,,,,,,q,1,0.367774009705,0.506453990936,0.000871181488037,,,,,,,,,,,,,,,,,,,0.86,,,,LearningTask,,,59.9366095543,1,2015_May_26_1118,1,
-200,q,200,,,,,,,,,,,,,,,,,1,0,1,0,13,0,52,1,,,,,,,,,,,,,,,,,,,,,,,,,,,,,,,,,,,,,,,,,,,,,,,,,,,,,LearningTask,,,59.9366095543,1,2015_May_26_1118,1,
200,s,-200,,,,,,,,,,,,,,,,,1,0,1,0,13,1,53,2,0,0,0,0,None,,,,,,,,,,,,,,,,,,,,,s,1,0.38476395607,0.501311063766,0.000877141952515,,,,,,,,,,,,,,,,,,,3.83,,,,LearningTask,,,59.9366095543,1,2015_May_26_1118,1,
200,s,-200,,,,,,,,,,,,,,,,,1,0,1,0,13,1,53,2,,,,,,,,,,,,,,,,,,,,,,,,,,,,,,,,,,,,,,,,,,,,,,,,,,,,,LearningTask,,,59.9366095543,1,2015_May_26_1118,1,
-200,a,-200,,,,,,,,,,,,,,,,,1,0,1,0,13,2,54,3,0,0,0,0,None,,,,,,,,,,,,,,,,,,,,,a,1,0.434018850327,0.507510900497,0.000888824462891,,,,,,,,,,,,,,,,,,,3.99,,,,LearningTask,,,59.9366095543,1,2015_May_26_1118,1,
-200,a,-200,,,,,,,,,,,,,,,,,1,0,1,0,13,2,54,3,,,,,,,,,,,,,,,,,,,,,,,,,,,,,,,,,,,,,,,,,,,,,,,,,,,,,LearningTask,,,59.9366095543,1,2015_May_26_1118,1,
200,s,-200,,,,,,,,,,,,,,,,,1,0,1,0,13,3,55,2,0,0,0,0,None,,,,,,,,,,,,,,,,,,,,,s,1,0.567523002625,0.507561922073,0.000881910324097,,,,,,,,,,,,,,,,,,,1.99,,,,LearningTask,,,59.9366095543,1,2015_May_26_1118,1,
200,s,-200,,,,,,,,,,,,,,,,,1,0,1,0,13,3,55,2,,,,,,,,,,,,,,,,,,,,,,,,,,,,,,,,,,,,,,,,,,,,,,,,,,,,,LearningTask,,,59.9366095543,1,2015_May_26_1118,1,
-200,a,-200,,,,,,,,,,,,,,,,,1,0,1,0,14,0,56,3,0,0,0,0,None,,,,,,,,,,,,,,,,,,,,,a,1,0.517692804337,0.500087976456,0.000906944274902,,,,,,,,,,,,,,,,,,,0.78,,,,LearningTask,,,59.9366095543,1,2015_May_26_1118,1,
-200,a,-200,,,,,,,,,,,,,,,,,1,0,1,0,14,0,56,3,,,,,,,,,,,,,,,,,,,,,,,,,,,,,,,,,,,,,,,,,,,,,,,,,,,,,LearningTask,,,59.9366095543,1,2015_May_26_1118,1,
-200,a,-200,,,,,,,,,,,,,,,,,1,0,1,0,14,1,57,3,0,0,0,0,None,,,,,,,,,,,,,,,,,,,,,a,1,0.433808088303,0.500530004501,0.00088095664978,,,,,,,,,,,,,,,,,,,2.21,,,,LearningTask,,,59.9366095543,1,2015_May_26_1118,1,
-200,a,-200,,,,,,,,,,,,,,,,,1,0,1,0,14,1,57,3,,,,,,,,,,,,,,,,,,,,,,,,,,,,,,,,,,,,,,,,,,,,,,,,,,,,,LearningTask,,,59.9366095543,1,2015_May_26_1118,1,
-200,a,-200,,,,,,,,,,,,,,,,,1,0,1,0,14,2,58,3,0,0,0,0,None,,,,,,,,,,,,,,,,,,,,,a,1,0.48419213295,0.512533903122,0.000882863998413,,,,,,,,,,,,,,,,,,,0.97,,,,LearningTask,,,59.9366095543,1,2015_May_26_1118,1,
-200,a,-200,,,,,,,,,,,,,,,,,1,0,1,0,14,2,58,3,,,,,,,,,,,,,,,,,,,,,,,,,,,,,,,,,,,,,,,,,,,,,,,,,,,,,LearningTask,,,59.9366095543,1,2015_May_26_1118,1,
200,s,-200,,,,,,,,,,,,,,,,,1,0,1,0,14,3,59,2,0,0,0,0,None,,,,,,,,,,,,,,,,,,,,,w,0,0.483960866928,0.515565156937,0.000875949859619,,,,,,,,,,,,,,,,,,,1.88,,,,LearningTask,,,59.9366095543,1,2015_May_26_1118,1,
200,s,-200,,,,,,,,,,,,,,,,,1,0,1,0,14,3,59,2,1,0,1,0,None,,,,,,,,,,,,,,,,,,,,,s,1,0.467986106873,0.516638994217,0.000940084457397,,,,,,,,,,,,,,,,,,,1.99,,,,LearningTask,,,59.9366095543,1,2015_May_26_1118,1,
200,s,-200,,,,,,,,,,,,,,,,,1,0,1,0,14,3,59,2,,,,,,,,,,,,,,,,,,,,,,,,,,,,,,,,,,,,,,,,,,,,,,,,,,,,,LearningTask,,,59.9366095543,1,2015_May_26_1118,1,
200,w,200,,,,,,,,,,,,,,,,,1,0,1,0,15,0,60,0,0,0,0,0,None,,,,,,,,,,,,,,,,,,,,,w,1,0.467563867569,0.508325099945,0.000895977020264,,,,,,,,,,,,,,,,,,,2.19,,,,LearningTask,,,59.9366095543,1,2015_May_26_1118,1,
200,w,200,,,,,,,,,,,,,,,,,1,0,1,0,15,0,60,0,,,,,,,,,,,,,,,,,,,,,,,,,,,,,,,,,,,,,,,,,,,,,,,,,,,,,LearningTask,,,59.9366095543,1,2015_May_26_1118,1,
-200,q,200,,,,,,,,,,,,,,,,,1,0,1,0,15,1,61,1,0,0,0,0,None,,,,,,,,,,,,,,,,,,,,,q,1,0.43398809433,0.500510931015,0.000957012176514,,,,,,,,,,,,,,,,,,,0.75,,,,LearningTask,,,59.9366095543,1,2015_May_26_1118,1,
-200,q,200,,,,,,,,,,,,,,,,,1,0,1,0,15,1,61,1,,,,,,,,,,,,,,,,,,,,,,,,,,,,,,,,,,,,,,,,,,,,,,,,,,,,,LearningTask,,,59.9366095543,1,2015_May_26_1118,1,
200,s,-200,,,,,,,,,,,,,,,,,1,0,1,0,15,2,62,2,0,0,0,0,None,,,,,,,,,,,,,,,,,,,,,s,1,0.400782823563,0.505343914032,0.000876903533936,,,,,,,,,,,,,,,,,,,1.21,,,,LearningTask,,,59.9366095543,1,2015_May_26_1118,1,
200,s,-200,,,,,,,,,,,,,,,,,1,0,1,0,15,2,62,2,,,,,,,,,,,,,,,,,,,,,,,,,,,,,,,,,,,,,,,,,,,,,,,,,,,,,LearningTask,,,59.9366095543,1,2015_May_26_1118,1,
200,s,-200,,,,,,,,,,,,,,,,,1,0,1,0,15,3,63,2,0,0,0,0,None,,,,,,,,,,,,,,,,,,,,,s,1,0.417432069778,0.510013103485,0.000956058502197,,,,,,,,,,,,,,,,,,,3.88,,,,LearningTask,,,59.9366095543,1,2015_May_26_1118,1,
200,s,-200,,,,,,,,,,,,,,,,,1,0,1,0,15,3,63,2,,,,,,,,,,,,,,,,,,,,,,,,,,,,,,,,,,,,,,,,,,,,,,,,,,,,,LearningTask,,,59.9366095543,1,2015_May_26_1118,1,
-200,a,-200,,,,,,,,,,,,,,,,,1,0,1,0,16,0,64,3,0,0,0,0,None,,,,,,,,,,,,,,,,,,,,,a,1,0.434679031372,0.515465021133,0.000885009765625,,,,,,,,,,,,,,,,,,,1.04,,,,LearningTask,,,59.9366095543,1,2015_May_26_1118,1,
-200,a,-200,,,,,,,,,,,,,,,,,1,0,1,0,16,0,64,3,,,,,,,,,,,,,,,,,,,,,,,,,,,,,,,,,,,,,,,,,,,,,,,,,,,,,LearningTask,,,59.9366095543,1,2015_May_26_1118,1,
200,s,-200,,,,,,,,,,,,,,,,,1,0,1,0,16,1,65,2,0,0,0,0,None,,,,,,,,,,,,,,,,,,,,,s,1,0.467648983002,0.505795001984,0.000883102416992,,,,,,,,,,,,,,,,,,,3.78,,,,LearningTask,,,59.9366095543,1,2015_May_26_1118,1,
200,s,-200,,,,,,,,,,,,,,,,,1,0,1,0,16,1,65,2,,,,,,,,,,,,,,,,,,,,,,,,,,,,,,,,,,,,,,,,,,,,,,,,,,,,,LearningTask,,,59.9366095543,1,2015_May_26_1118,1,
-200,q,200,,,,,,,,,,,,,,,,,1,0,1,0,16,2,66,1,0,0,0,0,None,,,,,,,,,,,,,,,,,,,,,q,1,0.551566123962,0.501869916916,0.000921964645386,,,,,,,,,,,,,,,,,,,0.35,,,,LearningTask,,,59.9366095543,1,2015_May_26_1118,1,
-200,q,200,,,,,,,,,,,,,,,,,1,0,1,0,16,2,66,1,,,,,,,,,,,,,,,,,,,,,,,,,,,,,,,,,,,,,,,,,,,,,,,,,,,,,LearningTask,,,59.9366095543,1,2015_May_26_1118,1,
200,w,200,,,,,,,,,,,,,,,,,1,0,1,0,16,3,67,0,0,0,0,0,None,,,,,,,,,,,,,,,,,,,,,w,1,0.450886964798,0.509490966797,0.000902891159058,,,,,,,,,,,,,,,,,,,1.75,,,,LearningTask,,,59.9366095543,1,2015_May_26_1118,1,
200,w,200,,,,,,,,,,,,,,,,,1,0,1,0,16,3,67,0,,,,,,,,,,,,,,,,,,,,,,,,,,,,,,,,,,,,,,,,,,,,,,,,,,,,,LearningTask,,,59.9366095543,1,2015_May_26_1118,1,
-200,a,-200,,,,,,,,,,,,,,,,,1,0,1,0,17,0,68,3,0,0,0,0,None,,,,,,,,,,,,,,,,,,,,,a,1,0.500952959061,0.504017114639,0.000869035720825,,,,,,,,,,,,,,,,,,,1.16,,,,LearningTask,,,59.9366095543,1,2015_May_26_1118,1,
-200,a,-200,,,,,,,,,,,,,,,,,1,0,1,0,17,0,68,3,,,,,,,,,,,,,,,,,,,,,,,,,,,,,,,,,,,,,,,,,,,,,,,,,,,,,LearningTask,,,59.9366095543,1,2015_May_26_1118,1,
200,s,-200,,,,,,,,,,,,,,,,,1,0,1,0,17,1,69,2,0,0,0,0,None,,,,,,,,,,,,,,,,,,,,,s,1,0.417515039444,0.509523868561,0.000901937484741,,,,,,,,,,,,,,,,,,,0.98,,,,LearningTask,,,59.9366095543,1,2015_May_26_1118,1,
200,s,-200,,,,,,,,,,,,,,,,,1,0,1,0,17,1,69,2,,,,,,,,,,,,,,,,,,,,,,,,,,,,,,,,,,,,,,,,,,,,,,,,,,,,,LearningTask,,,59.9366095543,1,2015_May_26_1118,1,
-200,a,-200,,,,,,,,,,,,,,,,,1,0,1,0,17,2,70,3,0,0,0,0,None,,,,,,,,,,,,,,,,,,,,,a,1,0.45098400116,0.515928030014,0.000881910324097,,,,,,,,,,,,,,,,,,,3.92,,,,LearningTask,,,59.9366095543,1,2015_May_26_1118,1,
-200,a,-200,,,,,,,,,,,,,,,,,1,0,1,0,17,2,70,3,,,,,,,,,,,,,,,,,,,,,,,,,,,,,,,,,,,,,,,,,,,,,,,,,,,,,LearningTask,,,59.9366095543,1,2015_May_26_1118,1,
200,w,200,,,,,,,,,,,,,,,,,1,0,1,0,17,3,71,0,0,0,0,0,None,,,,,,,,,,,,,,,,,,,,,w,1,0.500963926315,0.511219024658,0.00089693069458,,,,,,,,,,,,,,,,,,,2.01,,,,LearningTask,,,59.9366095543,1,2015_May_26_1118,1,
200,w,200,,,,,,,,,,,,,,,,,1,0,1,0,17,3,71,0,,,,,,,,,,,,,,,,,,,,,,,,,,,,,,,,,,,,,,,,,,,,,,,,,,,,,LearningTask,,,59.9366095543,1,2015_May_26_1118,1,
-200,a,-200,,,,,,,,,,,,,,,,,1,0,1,0,18,0,72,3,0,0,0,0,None,,,,,,,,,,,,,,,,,,,,,a,1,0.451197862625,0.510156154633,0.000910997390747,,,,,,,,,,,,,,,,,,,3.79,,,,LearningTask,,,59.9366095543,1,2015_May_26_1118,1,
-200,a,-200,,,,,,,,,,,,,,,,,1,0,1,0,18,0,72,3,,,,,,,,,,,,,,,,,,,,,,,,,,,,,,,,,,,,,,,,,,,,,,,,,,,,,LearningTask,,,59.9366095543,1,2015_May_26_1118,1,
200,s,-200,,,,,,,,,,,,,,,,,1,0,1,0,18,1,73,2,0,0,0,0,None,,,,,,,,,,,,,,,,,,,,,s,1,0.384259939194,0.510750055313,0.000900030136108,,,,,,,,,,,,,,,,,,,1.96,,,,LearningTask,,,59.9366095543,1,2015_May_26_1118,1,
200,s,-200,,,,,,,,,,,,,,,,,1,0,1,0,18,1,73,2,,,,,,,,,,,,,,,,,,,,,,,,,,,,,,,,,,,,,,,,,,,,,,,,,,,,,LearningTask,,,59.9366095543,1,2015_May_26_1118,1,
-200,q,200,,,,,,,,,,,,,,,,,1,0,1,0,18,2,74,1,0,0,0,0,None,,,,,,,,,,,,,,,,,,,,,q,1,0.384412050247,0.512354135513,0.00088906288147,,,,,,,,,,,,,,,,,,,0.98,,,,LearningTask,,,59.9366095543,1,2015_May_26_1118,1,
-200,q,200,,,,,,,,,,,,,,,,,1,0,1,0,18,2,74,1,,,,,,,,,,,,,,,,,,,,,,,,,,,,,,,,,,,,,,,,,,,,,,,,,,,,,LearningTask,,,59.9366095543,1,2015_May_26_1118,1,
200,w,200,,,,,,,,,,,,,,,,,1,0,1,0,18,3,75,0,0,0,0,0,None,,,,,,,,,,,,,,,,,,,,,w,1,0.4006960392,0.507080078125,0.000876903533936,,,,,,,,,,,,,,,,,,,0.26,,,,LearningTask,,,59.9366095543,1,2015_May_26_1118,1,
200,w,200,,,,,,,,,,,,,,,,,1,0,1,0,18,3,75,0,,,,,,,,,,,,,,,,,,,,,,,,,,,,,,,,,,,,,,,,,,,,,,,,,,,,,LearningTask,,,59.9366095543,1,2015_May_26_1118,1,
-200,q,200,,,,,,,,,,,,,,,,,1,0,1,0,19,0,76,1,0,0,0,0,None,,,,,,,,,,,,,,,,,,,,,q,1,0.383816957474,0.500477075577,0.000888109207153,,,,,,,,,,,,,,,,,,,0.88,,,,LearningTask,,,59.9366095543,1,2015_May_26_1118,1,
-200,q,200,,,,,,,,,,,,,,,,,1,0,1,0,19,0,76,1,,,,,,,,,,,,,,,,,,,,,,,,,,,,,,,,,,,,,,,,,,,,,,,,,,,,,LearningTask,,,59.9366095543,1,2015_May_26_1118,1,
-200,q,200,,,,,,,,,,,,,,,,,1,0,1,0,19,1,77,1,0,0,0,0,None,,,,,,,,,,,,,,,,,,,,,q,1,0.350996017456,0.509671926498,0.000881910324097,,,,,,,,,,,,,,,,,,,1.14,,,,LearningTask,,,59.9366095543,1,2015_May_26_1118,1,
-200,q,200,,,,,,,,,,,,,,,,,1,0,1,0,19,1,77,1,,,,,,,,,,,,,,,,,,,,,,,,,,,,,,,,,,,,,,,,,,,,,,,,,,,,,LearningTask,,,59.9366095543,1,2015_May_26_1118,1,
-200,q,200,,,,,,,,,,,,,,,,,1,0,1,0,19,2,78,1,0,0,0,0,None,,,,,,,,,,,,,,,,,,,,,q,1,0.350878953934,0.514727115631,0.000894069671631,,,,,,,,,,,,,,,,,,,4.24,,,,LearningTask,,,59.9366095543,1,2015_May_26_1118,1,
-200,q,200,,,,,,,,,,,,,,,,,1,0,1,0,19,2,78,1,,,,,,,,,,,,,,,,,,,,,,,,,,,,,,,,,,,,,,,,,,,,,,,,,,,,,LearningTask,,,59.9366095543,1,2015_May_26_1118,1,
200,s,-200,,,,,,,,,,,,,,,,,1,0,1,0,19,3,79,2,0,0,0,0,None,,,,,,,,,,,,,,,,,,,,,s,1,0.417969942093,0.509202957153,0.000880002975464,,,,,,,,,,,,,,,,,,,0.59,,,,LearningTask,,,59.9366095543,1,2015_May_26_1118,1,
200,s,-200,,,,,,,,,,,,,,,,,1,0,1,0,19,3,79,2,,,,,,,,,,,,,,,,,,,,,,,,,,,,,,,,,,,,,,,,,,,,,,,,,,,,,LearningTask,,,59.9366095543,1,2015_May_26_1118,1,
-200,a,-200,,,,,,,,,,,,,,,,,1,0,1,0,20,0,80,3,0,0,0,0,None,,,,,,,,,,,,,,,,,,,,,a,1,0.450989961624,0.502137184143,0.000881195068359,,,,,,,,,,,,,,,,,,,0.36,,,,LearningTask,,,59.9366095543,1,2015_May_26_1118,1,
-200,a,-200,,,,,,,,,,,,,,,,,1,0,1,0,20,0,80,3,,,,,,,,,,,,,,,,,,,,,,,,,,,,,,,,,,,,,,,,,,,,,,,,,,,,,LearningTask,,,59.9366095543,1,2015_May_26_1118,1,
-200,q,200,,,,,,,,,,,,,,,,,1,0,1,0,20,1,81,1,0,0,0,0,None,,,,,,,,,,,,,,,,,,,,,q,1,0.46768283844,0.510385990143,0.00092077255249,,,,,,,,,,,,,,,,,,,2.06,,,,LearningTask,,,59.9366095543,1,2015_May_26_1118,1,
-200,q,200,,,,,,,,,,,,,,,,,1,0,1,0,20,1,81,1,,,,,,,,,,,,,,,,,,,,,,,,,,,,,,,,,,,,,,,,,,,,,,,,,,,,,LearningTask,,,59.9366095543,1,2015_May_26_1118,1,
-200,q,200,,,,,,,,,,,,,,,,,1,0,1,0,20,2,82,1,0,0,0,0,None,,,,,,,,,,,,,,,,,,,,,q,1,0.367656946182,0.514867067337,0.000865936279297,,,,,,,,,,,,,,,,,,,1.25,,,,LearningTask,,,59.9366095543,1,2015_May_26_1118,1,
-200,q,200,,,,,,,,,,,,,,,,,1,0,1,0,20,2,82,1,,,,,,,,,,,,,,,,,,,,,,,,,,,,,,,,,,,,,,,,,,,,,,,,,,,,,LearningTask,,,59.9366095543,1,2015_May_26_1118,1,
-200,a,-200,,,,,,,,,,,,,,,,,1,0,1,0,20,3,83,3,0,0,0,0,None,,,,,,,,,,,,,,,,,,,,,a,1,0.434383869171,0.509855985641,0.000893831253052,,,,,,,,,,,,,,,,,,,3.79,,,,LearningTask,,,59.9366095543,1,2015_May_26_1118,1,
-200,a,-200,,,,,,,,,,,,,,,,,1,0,1,0,20,3,83,3,,,,,,,,,,,,,,,,,,,,,,,,,,,,,,,,,,,,,,,,,,,,,,,,,,,,,LearningTask,,,59.9366095543,1,2015_May_26_1118,1,
200,w,200,,,,,,,,,,,,,,,,,1,0,1,0,21,0,84,0,0,0,0,0,None,,,,,,,,,,,,,,,,,,,,,w,1,0.451243162155,0.51500582695,0.00092601776123,,,,,,,,,,,,,,,,,,,0.78,,,,LearningTask,,,59.9366095543,1,2015_May_26_1118,1,
200,w,200,,,,,,,,,,,,,,,,,1,0,1,0,21,0,84,0,,,,,,,,,,,,,,,,,,,,,,,,,,,,,,,,,,,,,,,,,,,,,,,,,,,,,LearningTask,,,59.9366095543,1,2015_May_26_1118,1,
-200,a,-200,,,,,,,,,,,,,,,,,1,0,1,0,21,1,85,3,0,0,0,0,None,,,,,,,,,,,,,,,,,,,,,a,1,0.467685937881,0.515192985535,0.000981092453003,,,,,,,,,,,,,,,,,,,3.99,,,,LearningTask,,,59.9366095543,1,2015_May_26_1118,1,
-200,a,-200,,,,,,,,,,,,,,,,,1,0,1,0,21,1,85,3,,,,,,,,,,,,,,,,,,,,,,,,,,,,,,,,,,,,,,,,,,,,,,,,,,,,,LearningTask,,,59.9366095543,1,2015_May_26_1118,1,
-200,a,-200,,,,,,,,,,,,,,,,,1,0,1,0,21,2,86,3,0,0,0,0,None,,,,,,,,,,,,,,,,,,,,,a,1,0.400933027267,0.503092050552,0.000880002975464,,,,,,,,,,,,,,,,,,,2.21,,,,LearningTask,,,59.9366095543,1,2015_May_26_1118,1,
-200,a,-200,,,,,,,,,,,,,,,,,1,0,1,0,21,2,86,3,,,,,,,,,,,,,,,,,,,,,,,,,,,,,,,,,,,,,,,,,,,,,,,,,,,,,LearningTask,,,59.9366095543,1,2015_May_26_1118,1,
200,w,200,,,,,,,,,,,,,,,,,1,0,1,0,21,3,87,0,0,0,0,0,None,,,,,,,,,,,,,,,,,,,,,w,1,0.384041070938,0.514033079147,0.000874996185303,,,,,,,,,,,,,,,,,,,0.85,,,,LearningTask,,,59.9366095543,1,2015_May_26_1118,1,
200,w,200,,,,,,,,,,,,,,,,,1,0,1,0,21,3,87,0,,,,,,,,,,,,,,,,,,,,,,,,,,,,,,,,,,,,,,,,,,,,,,,,,,,,,LearningTask,,,59.9366095543,1,2015_May_26_1118,1,
200,w,200,,,,,,,,,,,,,,,,,1,0,1,0,22,0,88,0,0,0,0,0,None,,,,,,,,,,,,,,,,,,,,,w,1,0.400692939758,0.514677047729,0.000881910324097,,,,,,,,,,,,,,,,,,,1.19,,,,LearningTask,,,59.9366095543,1,2015_May_26_1118,1,
200,w,200,,,,,,,,,,,,,,,,,1,0,1,0,22,0,88,0,,,,,,,,,,,,,,,,,,,,,,,,,,,,,,,,,,,,,,,,,,,,,,,,,,,,,LearningTask,,,59.9366095543,1,2015_May_26_1118,1,
200,s,-200,,,,,,,,,,,,,,,,,1,0,1,0,22,1,89,2,0,0,0,0,None,,,,,,,,,,,,,,,,,,,,,s,1,0.534254074097,0.516799926758,0.000876903533936,,,,,,,,,,,,,,,,,,,4.03,,,,LearningTask,,,59.9366095543,1,2015_May_26_1118,1,
200,s,-200,,,,,,,,,,,,,,,,,1,0,1,0,22,1,89,2,,,,,,,,,,,,,,,,,,,,,,,,,,,,,,,,,,,,,,,,,,,,,,,,,,,,,LearningTask,,,59.9366095543,1,2015_May_26_1118,1,
-200,a,-200,,,,,,,,,,,,,,,,,1,0,1,0,22,2,90,3,0,0,0,0,None,,,,,,,,,,,,,,,,,,,,,a,1,0.400742053986,0.507104158401,0.000870943069458,,,,,,,,,,,,,,,,,,,2.23,,,,LearningTask,,,59.9366095543,1,2015_May_26_1118,1,
-200,a,-200,,,,,,,,,,,,,,,,,1,0,1,0,22,2,90,3,,,,,,,,,,,,,,,,,,,,,,,,,,,,,,,,,,,,,,,,,,,,,,,,,,,,,LearningTask,,,59.9366095543,1,2015_May_26_1118,1,
200,w,200,,,,,,,,,,,,,,,,,1,0,1,0,22,3,91,0,0,0,0,0,None,,,,,,,,,,,,,,,,,,,,,w,1,0.417887926102,0.511032104492,0.000931024551392,,,,,,,,,,,,,,,,,,,0.59,,,,LearningTask,,,59.9366095543,1,2015_May_26_1118,1,
200,w,200,,,,,,,,,,,,,,,,,1,0,1,0,22,3,91,0,,,,,,,,,,,,,,,,,,,,,,,,,,,,,,,,,,,,,,,,,,,,,,,,,,,,,LearningTask,,,59.9366095543,1,2015_May_26_1118,1,
200,s,-200,,,,,,,,,,,,,,,,,1,0,1,0,23,0,92,2,0,0,0,0,None,,,,,,,,,,,,,,,,,,,,,s,1,0.384125947952,0.502861976624,0.000878095626831,,,,,,,,,,,,,,,,,,,0.35,,,,LearningTask,,,59.9366095543,1,2015_May_26_1118,1,
200,s,-200,,,,,,,,,,,,,,,,,1,0,1,0,23,0,92,2,,,,,,,,,,,,,,,,,,,,,,,,,,,,,,,,,,,,,,,,,,,,,,,,,,,,,LearningTask,,,59.9366095543,1,2015_May_26_1118,1,
-200,q,200,,,,,,,,,,,,,,,,,1,0,1,0,23,1,93,1,0,0,0,0,None,,,,,,,,,,,,,,,,,,,,,q,1,0.384166002274,0.509744882584,0.000875949859619,,,,,,,,,,,,,,,,,,,2.1,,,,LearningTask,,,59.9366095543,1,2015_May_26_1118,1,
-200,q,200,,,,,,,,,,,,,,,,,1,0,1,0,23,1,93,1,,,,,,,,,,,,,,,,,,,,,,,,,,,,,,,,,,,,,,,,,,,,,,,,,,,,,LearningTask,,,59.9366095543,1,2015_May_26_1118,1,
-200,q,200,,,,,,,,,,,,,,,,,1,0,1,0,23,2,94,1,0,0,0,0,None,,,,,,,,,,,,,,,,,,,,,q,1,0.334020137787,0.502531051636,0.000914096832275,,,,,,,,,,,,,,,,,,,2.12,,,,LearningTask,,,59.9366095543,1,2015_May_26_1118,1,
-200,q,200,,,,,,,,,,,,,,,,,1,0,1,0,23,2,94,1,,,,,,,,,,,,,,,,,,,,,,,,,,,,,,,,,,,,,,,,,,,,,,,,,,,,,LearningTask,,,59.9366095543,1,2015_May_26_1118,1,
-200,q,200,,,,,,,,,,,,,,,,,1,0,1,0,23,3,95,1,0,0,0,0,None,,,,,,,,,,,,,,,,,,,,,q,1,0.350963115692,0.501713037491,0.000882148742676,,,,,,,,,,,,,,,,,,,0.55,,,,LearningTask,,,59.9366095543,1,2015_May_26_1118,1,
-200,q,200,,,,,,,,,,,,,,,,,1,0,1,0,23,3,95,1,,,,,,,,,,,,,,,,,,,,,,,,,,,,,,,,,,,,,,,,,,,,,,,,,,,,,LearningTask,,,59.9366095543,1,2015_May_26_1118,1,
200,s,-200,,,,,,,,,,,,,,,,,1,0,1,0,24,0,96,2,0,0,0,0,None,,,,,,,,,,,,,,,,,,,,,s,1,0.451372861862,0.50884103775,0.000886201858521,,,,,,,,,,,,,,,,,,,4.19,,,,LearningTask,,,59.9366095543,1,2015_May_26_1118,1,
200,s,-200,,,,,,,,,,,,,,,,,1,0,1,0,24,0,96,2,,,,,,,,,,,,,,,,,,,,,,,,,,,,,,,,,,,,,,,,,,,,,,,,,,,,,LearningTask,,,59.9366095543,1,2015_May_26_1118,1,
200,w,200,,,,,,,,,,,,,,,,,1,0,1,0,24,1,97,0,0,0,0,0,None,,,,,,,,,,,,,,,,,,,,,w,1,0.417157888412,0.508038043976,0.000899076461792,,,,,,,,,,,,,,,,,,,0.34,,,,LearningTask,,,59.9366095543,1,2015_May_26_1118,1,
200,w,200,,,,,,,,,,,,,,,,,1,0,1,0,24,1,97,0,,,,,,,,,,,,,,,,,,,,,,,,,,,,,,,,,,,,,,,,,,,,,,,,,,,,,LearningTask,,,59.9366095543,1,2015_May_26_1118,1,
-200,a,-200,,,,,,,,,,,,,,,,,1,0,1,0,24,2,98,3,0,0,0,0,None,,,,,,,,,,,,,,,,,,,,,a,1,0.467288017273,0.516633987427,0.000906944274902,,,,,,,,,,,,,,,,,,,3.97,,,,LearningTask,,,59.9366095543,1,2015_May_26_1118,1,
-200,a,-200,,,,,,,,,,,,,,,,,1,0,1,0,24,2,98,3,,,,,,,,,,,,,,,,,,,,,,,,,,,,,,,,,,,,,,,,,,,,,,,,,,,,,LearningTask,,,59.9366095543,1,2015_May_26_1118,1,
200,s,-200,,,,,,,,,,,,,,,,,1,0,1,0,24,3,99,2,0,0,0,0,None,,,,,,,,,,,,,,,,,,,,,s,1,0.43418598175,0.50590801239,0.000992059707642,,,,,,,,,,,,,,,,,,,0.71,,,,LearningTask,,,59.9366095543,1,2015_May_26_1118,1,
200,s,-200,,,,,,,,,,,,,,,,,1,0,1,0,24,3,99,2,,,,,,,,,,,,,,,,,,,,,,,,,,,,,,,,,,,,,,,,,,,,,,,,,,,,,LearningTask,,,59.9366095543,1,2015_May_26_1118,1,
,,,,,,,,,,,,,,,,,,,1,0,1,0,,,,,,,,,,,,,,,,,,,,,,,,,,,,,,,,,,,,,,,,,,,,,,,,,,,,,,,,,LearningTask,,,59.9366095543,1,2015_May_26_1118,1,
200,w,200,,,,,,,,,,,,,,,,,2,0,2,0,0,0,0,0,0,0,0,0,None,,,,,,,,,,,,,,,,,,,,,w,1,0.45096206665,0.510510206223,0.000914096832275,,,,,,,,,,,,,,,,,,,0.71,,,,LearningTask,,,59.9366095543,1,2015_May_26_1118,1,
200,w,200,,,,,,,,,,,,,,,,,2,0,2,0,0,0,0,0,,,,,,,,,,,,,,,,,,,,,,,,,,,,,,,,,,,,,,,,,,,,,,,,,,,,,LearningTask,,,59.9366095543,1,2015_May_26_1118,1,
200,s,-200,,,,,,,,,,,,,,,,,2,0,2,0,0,1,1,2,0,0,0,0,None,,,,,,,,,,,,,,,,,,,,,s,1,0.384224891663,0.503216028214,0.000870943069458,,,,,,,,,,,,,,,,,,,1.05,,,,LearningTask,,,59.9366095543,1,2015_May_26_1118,1,
200,s,-200,,,,,,,,,,,,,,,,,2,0,2,0,0,1,1,2,,,,,,,,,,,,,,,,,,,,,,,,,,,,,,,,,,,,,,,,,,,,,,,,,,,,,LearningTask,,,59.9366095543,1,2015_May_26_1118,1,
200,w,200,,,,,,,,,,,,,,,,,2,0,2,0,0,2,2,0,0,0,0,0,None,,,,,,,,,,,,,,,,,,,,,w,1,0.450789928436,0.511572122574,0.000927925109863,,,,,,,,,,,,,,,,,,,2.03,,,,LearningTask,,,59.9366095543,1,2015_May_26_1118,1,
200,w,200,,,,,,,,,,,,,,,,,2,0,2,0,0,2,2,0,,,,,,,,,,,,,,,,,,,,,,,,,,,,,,,,,,,,,,,,,,,,,,,,,,,,,LearningTask,,,59.9366095543,1,2015_May_26_1118,1,
-200,q,200,,,,,,,,,,,,,,,,,2,0,2,0,0,3,3,1,0,0,0,0,None,,,,,,,,,,,,,,,,,,,,,q,1,0.517885923386,0.506054878235,0.000926971435547,,,,,,,,,,,,,,,,,,,2.21,,,,LearningTask,,,59.9366095543,1,2015_May_26_1118,1,
-200,q,200,,,,,,,,,,,,,,,,,2,0,2,0,0,3,3,1,,,,,,,,,,,,,,,,,,,,,,,,,,,,,,,,,,,,,,,,,,,,,,,,,,,,,LearningTask,,,59.9366095543,1,2015_May_26_1118,1,
200,s,-200,,,,,,,,,,,,,,,,,2,0,2,0,1,0,4,2,0,0,0,0,None,,,,,,,,,,,,,,,,,,,,,s,1,0.351130008698,0.512632131577,0.000878095626831,,,,,,,,,,,,,,,,,,,0.49,,,,LearningTask,,,59.9366095543,1,2015_May_26_1118,1,
200,s,-200,,,,,,,,,,,,,,,,,2,0,2,0,1,0,4,2,,,,,,,,,,,,,,,,,,,,,,,,,,,,,,,,,,,,,,,,,,,,,,,,,,,,,LearningTask,,,59.9366095543,1,2015_May_26_1118,1,
200,s,-200,,,,,,,,,,,,,,,,,2,0,2,0,1,1,5,2,0,0,0,0,None,,,,,,,,,,,,,,,,,,,,,s,1,0.367522001266,0.503797054291,0.00102615356445,,,,,,,,,,,,,,,,,,,4.04,,,,LearningTask,,,59.9366095543,1,2015_May_26_1118,1,
200,s,-200,,,,,,,,,,,,,,,,,2,0,2,0,1,1,5,2,,,,,,,,,,,,,,,,,,,,,,,,,,,,,,,,,,,,,,,,,,,,,,,,,,,,,LearningTask,,,59.9366095543,1,2015_May_26_1118,1,
200,w,200,,,,,,,,,,,,,,,,,2,0,2,0,1,2,6,0,0,0,0,0,None,,,,,,,,,,,,,,,,,,,,,w,1,0.36762213707,0.503137111664,0.00093412399292,,,,,,,,,,,,,,,,,,,0.75,,,,LearningTask,,,59.9366095543,1,2015_May_26_1118,1,
200,w,200,,,,,,,,,,,,,,,,,2,0,2,0,1,2,6,0,,,,,,,,,,,,,,,,,,,,,,,,,,,,,,,,,,,,,,,,,,,,,,,,,,,,,LearningTask,,,59.9366095543,1,2015_May_26_1118,1,
200,w,200,,,,,,,,,,,,,,,,,2,0,2,0,1,3,7,0,0,0,0,0,None,,,,,,,,,,,,,,,,,,,,,w,1,0.501204967499,0.510614871979,0.000921010971069,,,,,,,,,,,,,,,,,,,4.04,,,,LearningTask,,,59.9366095543,1,2015_May_26_1118,1,
200,w,200,,,,,,,,,,,,,,,,,2,0,2,0,1,3,7,0,,,,,,,,,,,,,,,,,,,,,,,,,,,,,,,,,,,,,,,,,,,,,,,,,,,,,LearningTask,,,59.9366095543,1,2015_May_26_1118,1,
-200,q,200,,,,,,,,,,,,,,,,,2,0,2,0,2,0,8,1,0,0,0,0,None,,,,,,,,,,,,,,,,,,,,,q,1,0.500995874405,0.510660886765,0.000884056091309,,,,,,,,,,,,,,,,,,,0.95,,,,LearningTask,,,59.9366095543,1,2015_May_26_1118,1,
-200,q,200,,,,,,,,,,,,,,,,,2,0,2,0,2,0,8,1,,,,,,,,,,,,,,,,,,,,,,,,,,,,,,,,,,,,,,,,,,,,,,,,,,,,,LearningTask,,,59.9366095543,1,2015_May_26_1118,1,
200,s,-200,,,,,,,,,,,,,,,,,2,0,2,0,2,1,9,2,0,0,0,0,None,,,,,,,,,,,,,,,,,,,,,s,1,0.401439905167,0.510545969009,0.000882863998413,,,,,,,,,,,,,,,,,,,1.24,,,,LearningTask,,,59.9366095543,1,2015_May_26_1118,1,
200,s,-200,,,,,,,,,,,,,,,,,2,0,2,0,2,1,9,2,,,,,,,,,,,,,,,,,,,,,,,,,,,,,,,,,,,,,,,,,,,,,,,,,,,,,LearningTask,,,59.9366095543,1,2015_May_26_1118,1,
-200,q,200,,,,,,,,,,,,,,,,,2,0,2,0,2,2,10,1,0,0,0,0,None,,,,,,,,,,,,,,,,,,,,,q,1,0.434152841568,0.509275913239,0.000941038131714,,,,,,,,,,,,,,,,,,,0.54,,,,LearningTask,,,59.9366095543,1,2015_May_26_1118,1,
-200,q,200,,,,,,,,,,,,,,,,,2,0,2,0,2,2,10,1,,,,,,,,,,,,,,,,,,,,,,,,,,,,,,,,,,,,,,,,,,,,,,,,,,,,,LearningTask,,,59.9366095543,1,2015_May_26_1118,1,
-200,a,-200,,,,,,,,,,,,,,,,,2,0,2,0,2,3,11,3,0,0,0,0,None,,,,,,,,,,,,,,,,,,,,,a,1,0.534245014191,0.509324073792,0.000874042510986,,,,,,,,,,,,,,,,,,,0.4,,,,LearningTask,,,59.9366095543,1,2015_May_26_1118,1,
-200,a,-200,,,,,,,,,,,,,,,,,2,0,2,0,2,3,11,3,,,,,,,,,,,,,,,,,,,,,,,,,,,,,,,,,,,,,,,,,,,,,,,,,,,,,LearningTask,,,59.9366095543,1,2015_May_26_1118,1,
200,s,-200,,,,,,,,,,,,,,,,,2,0,2,0,3,0,12,2,0,0,0,0,None,,,,,,,,,,,,,,,,,,,,,s,1,0.517673969269,0.504724979401,0.00088095664978,,,,,,,,,,,,,,,,,,,0.68,,,,LearningTask,,,59.9366095543,1,2015_May_26_1118,1,
200,s,-200,,,,,,,,,,,,,,,,,2,0,2,0,3,0,12,2,,,,,,,,,,,,,,,,,,,,,,,,,,,,,,,,,,,,,,,,,,,,,,,,,,,,,LearningTask,,,59.9366095543,1,2015_May_26_1118,1,
-200,q,200,,,,,,,,,,,,,,,,,2,0,2,0,3,1,13,1,0,0,0,0,None,,,,,,,,,,,,,,,,,,,,,q,1,0.367784976959,0.501674890518,0.000865936279297,,,,,,,,,,,,,,,,,,,0.98,,,,LearningTask,,,59.9366095543,1,2015_May_26_1118,1,
-200,q,200,,,,,,,,,,,,,,,,,2,0,2,0,3,1,13,1,,,,,,,,,,,,,,,,,,,,,,,,,,,,,,,,,,,,,,,,,,,,,,,,,,,,,LearningTask,,,59.9366095543,1,2015_May_26_1118,1,
200,s,-200,,,,,,,,,,,,,,,,,2,0,2,0,3,2,14,2,0,0,0,0,None,,,,,,,,,,,,,,,,,,,,,s,1,0.417895078659,0.50168800354,0.000883102416992,,,,,,,,,,,,,,,,,,,1.23,,,,LearningTask,,,59.9366095543,1,2015_May_26_1118,1,
200,s,-200,,,,,,,,,,,,,,,,,2,0,2,0,3,2,14,2,,,,,,,,,,,,,,,,,,,,,,,,,,,,,,,,,,,,,,,,,,,,,,,,,,,,,LearningTask,,,59.9366095543,1,2015_May_26_1118,1,
200,s,-200,,,,,,,,,,,,,,,,,2,0,2,0,3,3,15,2,0,0,0,0,None,,,,,,,,,,,,,,,,,,,,,s,1,0.400151968002,0.516421079636,0.000910043716431,,,,,,,,,,,,,,,,,,,2.22,,,,LearningTask,,,59.9366095543,1,2015_May_26_1118,1,
200,s,-200,,,,,,,,,,,,,,,,,2,0,2,0,3,3,15,2,,,,,,,,,,,,,,,,,,,,,,,,,,,,,,,,,,,,,,,,,,,,,,,,,,,,,LearningTask,,,59.9366095543,1,2015_May_26_1118,1,
-200,a,-200,,,,,,,,,,,,,,,,,2,0,2,0,4,0,16,3,0,0,0,0,None,,,,,,,,,,,,,,,,,,,,,a,1,0.517594814301,0.514546871185,0.000876903533936,,,,,,,,,,,,,,,,,,,1.77,,,,LearningTask,,,59.9366095543,1,2015_May_26_1118,1,
-200,a,-200,,,,,,,,,,,,,,,,,2,0,2,0,4,0,16,3,,,,,,,,,,,,,,,,,,,,,,,,,,,,,,,,,,,,,,,,,,,,,,,,,,,,,LearningTask,,,59.9366095543,1,2015_May_26_1118,1,
200,s,-200,,,,,,,,,,,,,,,,,2,0,2,0,4,1,17,2,0,0,0,0,None,,,,,,,,,,,,,,,,,,,,,s,1,0.383560180664,0.515902996063,0.000882148742676,,,,,,,,,,,,,,,,,,,1.8,,,,LearningTask,,,59.9366095543,1,2015_May_26_1118,1,
200,s,-200,,,,,,,,,,,,,,,,,2,0,2,0,4,1,17,2,,,,,,,,,,,,,,,,,,,,,,,,,,,,,,,,,,,,,,,,,,,,,,,,,,,,,LearningTask,,,59.9366095543,1,2015_May_26_1118,1,
-200,q,200,,,,,,,,,,,,,,,,,2,0,2,0,4,2,18,1,0,0,0,0,None,,,,,,,,,,,,,,,,,,,,,q,1,0.43506193161,0.509490966797,0.000922918319702,,,,,,,,,,,,,,,,,,,3.91,,,,LearningTask,,,59.9366095543,1,2015_May_26_1118,1,
-200,q,200,,,,,,,,,,,,,,,,,2,0,2,0,4,2,18,1,,,,,,,,,,,,,,,,,,,,,,,,,,,,,,,,,,,,,,,,,,,,,,,,,,,,,LearningTask,,,59.9366095543,1,2015_May_26_1118,1,
-200,q,200,,,,,,,,,,,,,,,,,2,0,2,0,4,3,19,1,0,0,0,0,None,,,,,,,,,,,,,,,,,,,,,q,1,0.484405040741,0.505032062531,0.000931024551392,,,,,,,,,,,,,,,,,,,1.09,,,,LearningTask,,,59.9366095543,1,2015_May_26_1118,1,
-200,q,200,,,,,,,,,,,,,,,,,2,0,2,0,4,3,19,1,,,,,,,,,,,,,,,,,,,,,,,,,,,,,,,,,,,,,,,,,,,,,,,,,,,,,LearningTask,,,59.9366095543,1,2015_May_26_1118,1,
200,w,200,,,,,,,,,,,,,,,,,2,0,2,0,5,0,20,0,0,0,0,0,None,,,,,,,,,,,,,,,,,,,,,w,1,0.451330900192,0.506774187088,0.000910043716431,,,,,,,,,,,,,,,,,,,0.8,,,,LearningTask,,,59.9366095543,1,2015_May_26_1118,1,
200,w,200,,,,,,,,,,,,,,,,,2,0,2,0,5,0,20,0,,,,,,,,,,,,,,,,,,,,,,,,,,,,,,,,,,,,,,,,,,,,,,,,,,,,,LearningTask,,,59.9366095543,1,2015_May_26_1118,1,
-200,a,-200,,,,,,,,,,,,,,,,,2,0,2,0,5,1,21,3,0,0,0,0,None,,,,,,,,,,,,,,,,,,,,,a,1,0.434833049774,0.50576210022,0.00091290473938,,,,,,,,,,,,,,,,,,,4.0,,,,LearningTask,,,59.9366095543,1,2015_May_26_1118,1,
-200,a,-200,,,,,,,,,,,,,,,,,2,0,2,0,5,1,21,3,,,,,,,,,,,,,,,,,,,,,,,,,,,,,,,,,,,,,,,,,,,,,,,,,,,,,LearningTask,,,59.9366095543,1,2015_May_26_1118,1,
200,w,200,,,,,,,,,,,,,,,,,2,0,2,0,5,2,22,0,0,0,0,0,None,,,,,,,,,,,,,,,,,,,,,w,1,0.451235055923,0.513863801956,0.000886917114258,,,,,,,,,,,,,,,,,,,2.06,,,,LearningTask,,,59.9366095543,1,2015_May_26_1118,1,
200,w,200,,,,,,,,,,,,,,,,,2,0,2,0,5,2,22,0,,,,,,,,,,,,,,,,,,,,,,,,,,,,,,,,,,,,,,,,,,,,,,,,,,,,,LearningTask,,,59.9366095543,1,2015_May_26_1118,1,
200,w,200,,,,,,,,,,,,,,,,,2,0,2,0,5,3,23,0,0,0,0,0,None,,,,,,,,,,,,,,,,,,,,,w,1,0.401226997375,0.513833045959,0.000936031341553,,,,,,,,,,,,,,,,,,,1.79,,,,LearningTask,,,59.9366095543,1,2015_May_26_1118,1,
200,w,200,,,,,,,,,,,,,,,,,2,0,2,0,5,3,23,0,,,,,,,,,,,,,,,,,,,,,,,,,,,,,,,,,,,,,,,,,,,,,,,,,,,,,LearningTask,,,59.9366095543,1,2015_May_26_1118,1,
-200,q,200,,,,,,,,,,,,,,,,,2,0,2,0,6,0,24,1,0,0,0,0,None,,,,,,,,,,,,,,,,,,,,,q,1,0.367625951767,0.506057024002,0.000878095626831,,,,,,,,,,,,,,,,,,,3.82,,,,LearningTask,,,59.9366095543,1,2015_May_26_1118,1,
-200,q,200,,,,,,,,,,,,,,,,,2,0,2,0,6,0,24,1,,,,,,,,,,,,,,,,,,,,,,,,,,,,,,,,,,,,,,,,,,,,,,,,,,,,,LearningTask,,,59.9366095543,1,2015_May_26_1118,1,
200,w,200,,,,,,,,,,,,,,,,,2,0,2,0,6,1,25,0,0,0,0,0,None,,,,,,,,,,,,,,,,,,,,,w,1,0.384421110153,0.501710891724,0.00102496147156,,,,,,,,,,,,,,,,,,,0.71,,,,LearningTask,,,59.9366095543,1,2015_May_26_1118,1,
200,w,200,,,,,,,,,,,,,,,,,2,0,2,0,6,1,25,0,,,,,,,,,,,,,,,,,,,,,,,,,,,,,,,,,,,,,,,,,,,,,,,,,,,,,LearningTask,,,59.9366095543,1,2015_May_26_1118,1,
-200,a,-200,,,,,,,,,,,,,,,,,2,0,2,0,6,2,26,3,0,0,0,0,None,,,,,,,,,,,,,,,,,,,,,a,1,0.417524814606,0.510518789291,0.000902891159058,,,,,,,,,,,,,,,,,,,2.01,,,,LearningTask,,,59.9366095543,1,2015_May_26_1118,1,
-200,a,-200,,,,,,,,,,,,,,,,,2,0,2,0,6,2,26,3,,,,,,,,,,,,,,,,,,,,,,,,,,,,,,,,,,,,,,,,,,,,,,,,,,,,,LearningTask,,,59.9366095543,1,2015_May_26_1118,1,
200,w,200,,,,,,,,,,,,,,,,,2,0,2,0,6,3,27,0,0,0,0,0,None,,,,,,,,,,,,,,,,,,,,,w,1,0.401122093201,0.508721113205,0.000921964645386,,,,,,,,,,,,,,,,,,,1.25,,,,LearningTask,,,59.9366095543,1,2015_May_26_1118,1,
200,w,200,,,,,,,,,,,,,,,,,2,0,2,0,6,3,27,0,,,,,,,,,,,,,,,,,,,,,,,,,,,,,,,,,,,,,,,,,,,,,,,,,,,,,LearningTask,,,59.9366095543,1,2015_May_26_1118,1,
-200,q,200,,,,,,,,,,,,,,,,,2,0,2,0,7,0,28,1,0,0,0,0,None,,,,,,,,,,,,,,,,,,,,,q,1,0.417663812637,0.50177693367,0.00088906288147,,,,,,,,,,,,,,,,,,,0.59,,,,LearningTask,,,59.9366095543,1,2015_May_26_1118,1,
-200,q,200,,,,,,,,,,,,,,,,,2,0,2,0,7,0,28,1,,,,,,,,,,,,,,,,,,,,,,,,,,,,,,,,,,,,,,,,,,,,,,,,,,,,,LearningTask,,,59.9366095543,1,2015_May_26_1118,1,
200,w,200,,,,,,,,,,,,,,,,,2,0,2,0,7,1,29,0,0,0,0,0,None,,,,,,,,,,,,,,,,,,,,,w,1,0.400845050812,0.502368211746,0.000904083251953,,,,,,,,,,,,,,,,,,,0.69,,,,LearningTask,,,59.9366095543,1,2015_May_26_1118,1,
200,w,200,,,,,,,,,,,,,,,,,2,0,2,0,7,1,29,0,,,,,,,,,,,,,,,,,,,,,,,,,,,,,,,,,,,,,,,,,,,,,,,,,,,,,LearningTask,,,59.9366095543,1,2015_May_26_1118,1,
-200,a,-200,,,,,,,,,,,,,,,,,2,0,2,0,7,2,30,3,0,0,0,0,None,,,,,,,,,,,,,,,,,,,,,a,1,0.451166152954,0.513821840286,0.000880002975464,,,,,,,,,,,,,,,,,,,3.85,,,,LearningTask,,,59.9366095543,1,2015_May_26_1118,1,
-200,a,-200,,,,,,,,,,,,,,,,,2,0,2,0,7,2,30,3,,,,,,,,,,,,,,,,,,,,,,,,,,,,,,,,,,,,,,,,,,,,,,,,,,,,,LearningTask,,,59.9366095543,1,2015_May_26_1118,1,
200,s,-200,,,,,,,,,,,,,,,,,2,0,2,0,7,3,31,2,0,0,0,0,None,,,,,,,,,,,,,,,,,,,,,s,1,0.384082078934,0.501590967178,0.000880002975464,,,,,,,,,,,,,,,,,,,1.07,,,,LearningTask,,,59.9366095543,1,2015_May_26_1118,1,
200,s,-200,,,,,,,,,,,,,,,,,2,0,2,0,7,3,31,2,,,,,,,,,,,,,,,,,,,,,,,,,,,,,,,,,,,,,,,,,,,,,,,,,,,,,LearningTask,,,59.9366095543,1,2015_May_26_1118,1,
-200,a,-200,,,,,,,,,,,,,,,,,2,0,2,0,8,0,32,3,0,0,0,0,None,,,,,,,,,,,,,,,,,,,,,a,1,0.416995048523,0.510803937912,0.00095796585083,,,,,,,,,,,,,,,,,,,0.64,,,,LearningTask,,,59.9366095543,1,2015_May_26_1118,1,
-200,a,-200,,,,,,,,,,,,,,,,,2,0,2,0,8,0,32,3,,,,,,,,,,,,,,,,,,,,,,,,,,,,,,,,,,,,,,,,,,,,,,,,,,,,,LearningTask,,,59.9366095543,1,2015_May_26_1118,1,
-200,q,200,,,,,,,,,,,,,,,,,2,0,2,0,8,1,33,1,0,0,0,0,None,,,,,,,,,,,,,,,,,,,,,q,1,0.368026018143,0.501735925674,0.000872850418091,,,,,,,,,,,,,,,,,,,3.92,,,,LearningTask,,,59.9366095543,1,2015_May_26_1118,1,
-200,q,200,,,,,,,,,,,,,,,,,2,0,2,0,8,1,33,1,,,,,,,,,,,,,,,,,,,,,,,,,,,,,,,,,,,,,,,,,,,,,,,,,,,,,LearningTask,,,59.9366095543,1,2015_May_26_1118,1,
-200,a,-200,,,,,,,,,,,,,,,,,2,0,2,0,8,2,34,3,0,0,0,0,None,,,,,,,,,,,,,,,,,,,,,a,1,0.484370946884,0.500162124634,0.000946044921875,,,,,,,,,,,,,,,,,,,0.77,,,,LearningTask,,,59.9366095543,1,2015_May_26_1118,1,
-200,a,-200,,,,,,,,,,,,,,,,,2,0,2,0,8,2,34,3,,,,,,,,,,,,,,,,,,,,,,,,,,,,,,,,,,,,,,,,,,,,,,,,,,,,,LearningTask,,,59.9366095543,1,2015_May_26_1118,1,
200,s,-200,,,,,,,,,,,,,,,,,2,0,2,0,8,3,35,2,0,0,0,0,None,,,,,,,,,,,,,,,,,,,,,s,1,0.367422103882,0.501890897751,0.000880002975464,,,,,,,,,,,,,,,,,,,0.74,,,,LearningTask,,,59.9366095543,1,2015_May_26_1118,1,
200,s,-200,,,,,,,,,,,,,,,,,2,0,2,0,8,3,35,2,,,,,,,,,,,,,,,,,,,,,,,,,,,,,,,,,,,,,,,,,,,,,,,,,,,,,LearningTask,,,59.9366095543,1,2015_May_26_1118,1,
-200,a,-200,,,,,,,,,,,,,,,,,2,0,2,0,9,0,36,3,0,0,0,0,None,,,,,,,,,,,,,,,,,,,,,a,1,0.384376049042,0.514810085297,0.000885009765625,,,,,,,,,,,,,,,,,,,4.11,,,,LearningTask,,,59.9366095543,1,2015_May_26_1118,1,
-200,a,-200,,,,,,,,,,,,,,,,,2,0,2,0,9,0,36,3,,,,,,,,,,,,,,,,,,,,,,,,,,,,,,,,,,,,,,,,,,,,,,,,,,,,,LearningTask,,,59.9366095543,1,2015_May_26_1118,1,
-200,q,200,,,,,,,,,,,,,,,,,2,0,2,0,9,1,37,1,0,0,0,0,None,,,,,,,,,,,,,,,,,,,,,q,1,0.36782002449,0.516336917877,0.000871896743774,,,,,,,,,,,,,,,,,,,2.17,,,,LearningTask,,,59.9366095543,1,2015_May_26_1118,1,
-200,q,200,,,,,,,,,,,,,,,,,2,0,2,0,9,1,37,1,,,,,,,,,,,,,,,,,,,,,,,,,,,,,,,,,,,,,,,,,,,,,,,,,,,,,LearningTask,,,59.9366095543,1,2015_May_26_1118,1,
200,s,-200,,,,,,,,,,,,,,,,,2,0,2,0,9,2,38,2,0,0,0,0,None,,,,,,,,,,,,,,,,,,,,,s,1,0.350792884827,0.512091159821,0.000874996185303,,,,,,,,,,,,,,,,,,,4.18,,,,LearningTask,,,59.9366095543,1,2015_May_26_1118,1,
200,s,-200,,,,,,,,,,,,,,,,,2,0,2,0,9,2,38,2,,,,,,,,,,,,,,,,,,,,,,,,,,,,,,,,,,,,,,,,,,,,,,,,,,,,,LearningTask,,,59.9366095543,1,2015_May_26_1118,1,
-200,q,200,,,,,,,,,,,,,,,,,2,0,2,0,9,3,39,1,0,0,0,0,None,,,,,,,,,,,,,,,,,,,,,q,1,0.367357969284,0.509156942368,0.000869989395142,,,,,,,,,,,,,,,,,,,1.01,,,,LearningTask,,,59.9366095543,1,2015_May_26_1118,1,
-200,q,200,,,,,,,,,,,,,,,,,2,0,2,0,9,3,39,1,,,,,,,,,,,,,,,,,,,,,,,,,,,,,,,,,,,,,,,,,,,,,,,,,,,,,LearningTask,,,59.9366095543,1,2015_May_26_1118,1,
200,w,200,,,,,,,,,,,,,,,,,2,0,2,0,10,0,40,0,0,0,0,0,None,,,,,,,,,,,,,,,,,,,,,w,1,0.434011936188,0.515825986862,0.000926971435547,,,,,,,,,,,,,,,,,,,3.94,,,,LearningTask,,,59.9366095543,1,2015_May_26_1118,1,
200,w,200,,,,,,,,,,,,,,,,,2,0,2,0,10,0,40,0,,,,,,,,,,,,,,,,,,,,,,,,,,,,,,,,,,,,,,,,,,,,,,,,,,,,,LearningTask,,,59.9366095543,1,2015_May_26_1118,1,
-200,q,200,,,,,,,,,,,,,,,,,2,0,2,0,10,1,41,1,0,0,0,0,None,,,,,,,,,,,,,,,,,,,,,q,1,0.401175022125,0.513131141663,0.000910043716431,,,,,,,,,,,,,,,,,,,4.13,,,,LearningTask,,,59.9366095543,1,2015_May_26_1118,1,
-200,q,200,,,,,,,,,,,,,,,,,2,0,2,0,10,1,41,1,,,,,,,,,,,,,,,,,,,,,,,,,,,,,,,,,,,,,,,,,,,,,,,,,,,,,LearningTask,,,59.9366095543,1,2015_May_26_1118,1,
200,s,-200,,,,,,,,,,,,,,,,,2,0,2,0,10,2,42,2,0,0,0,0,None,,,,,,,,,,,,,,,,,,,,,s,1,0.400890827179,0.513570785522,0.000922918319702,,,,,,,,,,,,,,,,,,,2.2,,,,LearningTask,,,59.9366095543,1,2015_May_26_1118,1,
200,s,-200,,,,,,,,,,,,,,,,,2,0,2,0,10,2,42,2,,,,,,,,,,,,,,,,,,,,,,,,,,,,,,,,,,,,,,,,,,,,,,,,,,,,,LearningTask,,,59.9366095543,1,2015_May_26_1118,1,
-200,q,200,,,,,,,,,,,,,,,,,2,0,2,0,10,3,43,1,0,0,0,0,None,,,,,,,,,,,,,,,,,,,,,q,1,0.417777061462,0.514163017273,0.000926971435547,,,,,,,,,,,,,,,,,,,1.16,,,,LearningTask,,,59.9366095543,1,2015_May_26_1118,1,
-200,q,200,,,,,,,,,,,,,,,,,2,0,2,0,10,3,43,1,,,,,,,,,,,,,,,,,,,,,,,,,,,,,,,,,,,,,,,,,,,,,,,,,,,,,LearningTask,,,59.9366095543,1,2015_May_26_1118,1,
-200,a,-200,,,,,,,,,,,,,,,,,2,0,2,0,11,0,44,3,0,0,0,0,None,,,,,,,,,,,,,,,,,,,,,a,1,0.467913150787,0.501857042313,0.000916004180908,,,,,,,,,,,,,,,,,,,2.25,,,,LearningTask,,,59.9366095543,1,2015_May_26_1118,1,
-200,a,-200,,,,,,,,,,,,,,,,,2,0,2,0,11,0,44,3,,,,,,,,,,,,,,,,,,,,,,,,,,,,,,,,,,,,,,,,,,,,,,,,,,,,,LearningTask,,,59.9366095543,1,2015_May_26_1118,1,
200,w,200,,,,,,,,,,,,,,,,,2,0,2,0,11,1,45,0,0,0,0,0,None,,,,,,,,,,,,,,,,,,,,,w,1,0.450691223145,0.514352083206,0.000885009765625,,,,,,,,,,,,,,,,,,,0.57,,,,LearningTask,,,59.9366095543,1,2015_May_26_1118,1,
200,w,200,,,,,,,,,,,,,,,,,2,0,2,0,11,1,45,0,,,,,,,,,,,,,,,,,,,,,,,,,,,,,,,,,,,,,,,,,,,,,,,,,,,,,LearningTask,,,59.9366095543,1,2015_May_26_1118,1,
-200,a,-200,,,,,,,,,,,,,,,,,2,0,2,0,11,2,46,3,0,0,0,0,None,,,,,,,,,,,,,,,,,,,,,a,1,0.517625808716,0.511989831924,0.000869035720825,,,,,,,,,,,,,,,,,,,0.9,,,,LearningTask,,,59.9366095543,1,2015_May_26_1118,1,
-200,a,-200,,,,,,,,,,,,,,,,,2,0,2,0,11,2,46,3,,,,,,,,,,,,,,,,,,,,,,,,,,,,,,,,,,,,,,,,,,,,,,,,,,,,,LearningTask,,,59.9366095543,1,2015_May_26_1118,1,
200,w,200,,,,,,,,,,,,,,,,,2,0,2,0,11,3,47,0,0,0,0,0,None,,,,,,,,,,,,,,,,,,,,,w,1,0.367338895798,0.502819061279,0.00092887878418,,,,,,,,,,,,,,,,,,,1.79,,,,LearningTask,,,59.9366095543,1,2015_May_26_1118,1,
200,w,200,,,,,,,,,,,,,,,,,2,0,2,0,11,3,47,0,,,,,,,,,,,,,,,,,,,,,,,,,,,,,,,,,,,,,,,,,,,,,,,,,,,,,LearningTask,,,59.9366095543,1,2015_May_26_1118,1,
-200,q,200,,,,,,,,,,,,,,,,,2,0,2,0,12,0,48,1,0,0,0,0,None,,,,,,,,,,,,,,,,,,,,,q,1,0.350889921188,0.516631126404,0.000974178314209,,,,,,,,,,,,,,,,,,,3.76,,,,LearningTask,,,59.9366095543,1,2015_May_26_1118,1,
-200,q,200,,,,,,,,,,,,,,,,,2,0,2,0,12,0,48,1,,,,,,,,,,,,,,,,,,,,,,,,,,,,,,,,,,,,,,,,,,,,,,,,,,,,,LearningTask,,,59.9366095543,1,2015_May_26_1118,1,
-200,a,-200,,,,,,,,,,,,,,,,,2,0,2,0,12,1,49,3,0,0,0,0,None,,,,,,,,,,,,,,,,,,,,,a,1,0.417515039444,0.509440898895,0.000923871994019,,,,,,,,,,,,,,,,,,,1.16,,,,LearningTask,,,59.9366095543,1,2015_May_26_1118,1,
-200,a,-200,,,,,,,,,,,,,,,,,2,0,2,0,12,1,49,3,,,,,,,,,,,,,,,,,,,,,,,,,,,,,,,,,,,,,,,,,,,,,,,,,,,,,LearningTask,,,59.9366095543,1,2015_May_26_1118,1,
200,s,-200,,,,,,,,,,,,,,,,,2,0,2,0,12,2,50,2,0,0,0,0,None,,,,,,,,,,,,,,,,,,,,,s,1,0.36748790741,0.510568857193,0.000906944274902,,,,,,,,,,,,,,,,,,,0.46,,,,LearningTask,,,59.9366095543,1,2015_May_26_1118,1,
200,s,-200,,,,,,,,,,,,,,,,,2,0,2,0,12,2,50,2,,,,,,,,,,,,,,,,,,,,,,,,,,,,,,,,,,,,,,,,,,,,,,,,,,,,,LearningTask,,,59.9366095543,1,2015_May_26_1118,1,
-200,q,200,,,,,,,,,,,,,,,,,2,0,2,0,12,3,51,1,0,0,0,0,None,,,,,,,,,,,,,,,,,,,,,q,1,0.350651025772,0.504643917084,0.000931978225708,,,,,,,,,,,,,,,,,,,4.02,,,,LearningTask,,,59.9366095543,1,2015_May_26_1118,1,
-200,q,200,,,,,,,,,,,,,,,,,2,0,2,0,12,3,51,1,,,,,,,,,,,,,,,,,,,,,,,,,,,,,,,,,,,,,,,,,,,,,,,,,,,,,LearningTask,,,59.9366095543,1,2015_May_26_1118,1,
-200,a,-200,,,,,,,,,,,,,,,,,2,0,2,0,13,0,52,3,0,0,0,0,None,,,,,,,,,,,,,,,,,,,,,a,1,0.384260177612,0.5012550354,0.000915050506592,,,,,,,,,,,,,,,,,,,1.13,,,,LearningTask,,,59.9366095543,1,2015_May_26_1118,1,
-200,a,-200,,,,,,,,,,,,,,,,,2,0,2,0,13,0,52,3,,,,,,,,,,,,,,,,,,,,,,,,,,,,,,,,,,,,,,,,,,,,,,,,,,,,,LearningTask,,,59.9366095543,1,2015_May_26_1118,1,
200,s,-200,,,,,,,,,,,,,,,,,2,0,2,0,13,1,53,2,0,0,0,0,None,,,,,,,,,,,,,,,,,,,,,s,1,0.434299945831,0.513347148895,0.040158033371,,,,,,,,,,,,,,,,,,,0.84,,,,LearningTask,,,59.9366095543,1,2015_May_26_1118,1,
200,s,-200,,,,,,,,,,,,,,,,,2,0,2,0,13,1,53,2,,,,,,,,,,,,,,,,,,,,,,,,,,,,,,,,,,,,,,,,,,,,,,,,,,,,,LearningTask,,,59.9366095543,1,2015_May_26_1118,1,
200,w,200,,,,,,,,,,,,,,,,,2,0,2,0,13,2,54,0,0,0,0,0,None,,,,,,,,,,,,,,,,,,,,,w,1,0.401169061661,0.50062084198,0.000925064086914,,,,,,,,,,,,,,,,,,,2.04,,,,LearningTask,,,59.9366095543,1,2015_May_26_1118,1,
200,w,200,,,,,,,,,,,,,,,,,2,0,2,0,13,2,54,0,,,,,,,,,,,,,,,,,,,,,,,,,,,,,,,,,,,,,,,,,,,,,,,,,,,,,LearningTask,,,59.9366095543,1,2015_May_26_1118,1,
200,w,200,,,,,,,,,,,,,,,,,2,0,2,0,13,3,55,0,0,0,0,0,None,,,,,,,,,,,,,,,,,,,,,w,1,0.384433031082,0.509344100952,0.00092601776123,,,,,,,,,,,,,,,,,,,0.43,,,,LearningTask,,,59.9366095543,1,2015_May_26_1118,1,
200,w,200,,,,,,,,,,,,,,,,,2,0,2,0,13,3,55,0,,,,,,,,,,,,,,,,,,,,,,,,,,,,,,,,,,,,,,,,,,,,,,,,,,,,,LearningTask,,,59.9366095543,1,2015_May_26_1118,1,
200,w,200,,,,,,,,,,,,,,,,,2,0,2,0,14,0,56,0,0,0,0,0,None,,,,,,,,,,,,,,,,,,,,,w,1,0.41805100441,0.506129026413,0.000952959060669,,,,,,,,,,,,,,,,,,,2.01,,,,LearningTask,,,59.9366095543,1,2015_May_26_1118,1,
200,w,200,,,,,,,,,,,,,,,,,2,0,2,0,14,0,56,0,,,,,,,,,,,,,,,,,,,,,,,,,,,,,,,,,,,,,,,,,,,,,,,,,,,,,LearningTask,,,59.9366095543,1,2015_May_26_1118,1,
200,s,-200,,,,,,,,,,,,,,,,,2,0,2,0,14,1,57,2,0,0,0,0,None,,,,,,,,,,,,,,,,,,,,,s,1,0.384385108948,0.503656864166,0.000919818878174,,,,,,,,,,,,,,,,,,,3.96,,,,LearningTask,,,59.9366095543,1,2015_May_26_1118,1,
200,s,-200,,,,,,,,,,,,,,,,,2,0,2,0,14,1,57,2,,,,,,,,,,,,,,,,,,,,,,,,,,,,,,,,,,,,,,,,,,,,,,,,,,,,,LearningTask,,,59.9366095543,1,2015_May_26_1118,1,
200,s,-200,,,,,,,,,,,,,,,,,2,0,2,0,14,2,58,2,0,0,0,0,None,,,,,,,,,,,,,,,,,,,,,s,1,0.334133863449,0.507788181305,0.000933170318604,,,,,,,,,,,,,,,,,,,0.57,,,,LearningTask,,,59.9366095543,1,2015_May_26_1118,1,
200,s,-200,,,,,,,,,,,,,,,,,2,0,2,0,14,2,58,2,,,,,,,,,,,,,,,,,,,,,,,,,,,,,,,,,,,,,,,,,,,,,,,,,,,,,LearningTask,,,59.9366095543,1,2015_May_26_1118,1,
-200,q,200,,,,,,,,,,,,,,,,,2,0,2,0,14,3,59,1,0,0,0,0,None,,,,,,,,,,,,,,,,,,,,,q,1,0.401057004929,0.510334014893,0.000872850418091,,,,,,,,,,,,,,,,,,,1.88,,,,LearningTask,,,59.9366095543,1,2015_May_26_1118,1,
-200,q,200,,,,,,,,,,,,,,,,,2,0,2,0,14,3,59,1,,,,,,,,,,,,,,,,,,,,,,,,,,,,,,,,,,,,,,,,,,,,,,,,,,,,,LearningTask,,,59.9366095543,1,2015_May_26_1118,1,
