xPos,corrAns,yPos,practiceTrials.thisRepN,practiceTrials.thisTrialN,practiceTrials.thisN,practiceTrials.thisIndex,ReDoLoop.thisRepN,ReDoLoop.thisTrialN,ReDoLoop.thisN,ReDoLoop.thisIndex,Blocks.thisRepN,Blocks.thisTrialN,Blocks.thisN,Blocks.thisIndex,Blocks.thisTrial,trials.thisRepN,trials.thisTrialN,trials.thisN,trials.thisIndex,ReDoLoopMain.thisRepN,ReDoLoopMain.thisTrialN,ReDoLoopMain.thisN,ReDoLoopMain.thisIndex,ReDoLoopMain.thisTrial,ok1.keys,ok1.rt,resp.keys,resp.corr,resp.rt,expName,gender (m/f),age,frameRate,session,date,participant,
,,,,,,,,,,,,,,,,,,,,,,,,,space,0.97235417366,,,,LearningTask,,,59.940207046,3,2015_Mar_19_0937,200,
-200,g,-200,0,0,0,3,0,0,0,0,,,,,,,,,,,,,,,,,g,1,0.484213113785,LearningTask,,,59.940207046,3,2015_Mar_19_0937,200,
-200,g,-200,0,0,0,3,,,,,,,,,,,,,,,,,,,,,,,,LearningTask,,,59.940207046,3,2015_Mar_19_0937,200,
200,y,200,0,1,1,0,0,0,0,0,,,,,,,,,,,,,,,,,y,1,0.434108972549,LearningTask,,,59.940207046,3,2015_Mar_19_0937,200,
200,y,200,0,1,1,0,,,,,,,,,,,,,,,,,,,,,,,,LearningTask,,,59.940207046,3,2015_Mar_19_0937,200,
200,h,-200,0,2,2,2,0,0,0,0,,,,,,,,,,,,,,,,,h,1,0.417808055878,LearningTask,,,59.940207046,3,2015_Mar_19_0937,200,
200,h,-200,0,2,2,2,,,,,,,,,,,,,,,,,,,,,,,,LearningTask,,,59.940207046,3,2015_Mar_19_0937,200,
200,y,200,0,3,3,0,0,0,0,0,,,,,,,,,,,,,,,,,y,1,0.353145122528,LearningTask,,,59.940207046,3,2015_Mar_19_0937,200,
200,y,200,0,3,3,0,,,,,,,,,,,,,,,,,,,,,,,,LearningTask,,,59.940207046,3,2015_Mar_19_0937,200,
200,h,-200,1,0,4,2,0,0,0,0,,,,,,,,,,,,,,,,,h,1,0.384109973907,LearningTask,,,59.940207046,3,2015_Mar_19_0937,200,
200,h,-200,1,0,4,2,,,,,,,,,,,,,,,,,,,,,,,,LearningTask,,,59.940207046,3,2015_Mar_19_0937,200,
-200,t,200,1,1,5,1,0,0,0,0,,,,,,,,,,,,,,,,,t,1,0.400185823441,LearningTask,,,59.940207046,3,2015_Mar_19_0937,200,
-200,t,200,1,1,5,1,,,,,,,,,,,,,,,,,,,,,,,,LearningTask,,,59.940207046,3,2015_Mar_19_0937,200,
-200,t,200,1,2,6,1,0,0,0,0,,,,,,,,,,,,,,,,,t,1,0.513393878937,LearningTask,,,59.940207046,3,2015_Mar_19_0937,200,
-200,t,200,1,2,6,1,,,,,,,,,,,,,,,,,,,,,,,,LearningTask,,,59.940207046,3,2015_Mar_19_0937,200,
-200,g,-200,1,3,7,3,0,0,0,0,,,,,,,,,,,,,,,,,g,1,0.417809009552,LearningTask,,,59.940207046,3,2015_Mar_19_0937,200,
-200,g,-200,1,3,7,3,,,,,,,,,,,,,,,,,,,,,,,,LearningTask,,,59.940207046,3,2015_Mar_19_0937,200,
-200,g,-200,,,,,,,,,0,0,0,0,None,0,0,0,3,0,0,0,0,None,,,g,1,0.500817060471,LearningTask,,,59.940207046,3,2015_Mar_19_0937,200,
-200,g,-200,,,,,,,,,0,0,0,0,None,0,0,0,3,,,,,,,,,,,LearningTask,,,59.940207046,3,2015_Mar_19_0937,200,
200,h,-200,,,,,,,,,0,0,0,0,None,0,1,1,2,0,0,0,0,None,,,y,0,0.500834941864,LearningTask,,,59.940207046,3,2015_Mar_19_0937,200,
200,h,-200,,,,,,,,,0,0,0,0,None,0,1,1,2,,,,,,,,,,,LearningTask,,,59.940207046,3,2015_Mar_19_0937,200,
-200,t,200,,,,,,,,,0,0,0,0,None,0,2,2,1,0,0,0,0,None,,,None,0,,LearningTask,,,59.940207046,3,2015_Mar_19_0937,200,
-200,t,200,,,,,,,,,0,0,0,0,None,0,2,2,1,1,0,1,0,None,,,t,1,0.401006937027,LearningTask,,,59.940207046,3,2015_Mar_19_0937,200,
-200,t,200,,,,,,,,,0,0,0,0,None,0,2,2,1,,,,,,,,,,,LearningTask,,,59.940207046,3,2015_Mar_19_0937,200,
200,y,200,,,,,,,,,0,0,0,0,None,0,3,3,0,0,0,0,0,None,,,y,1,0.450986146927,LearningTask,,,59.940207046,3,2015_Mar_19_0937,200,
200,y,200,,,,,,,,,0,0,0,0,None,0,3,3,0,,,,,,,,,,,LearningTask,,,59.940207046,3,2015_Mar_19_0937,200,
200,h,-200,,,,,,,,,0,0,0,0,None,1,0,4,2,0,0,0,0,None,,,h,1,0.400753974915,LearningTask,,,59.940207046,3,2015_Mar_19_0937,200,
200,h,-200,,,,,,,,,0,0,0,0,None,1,0,4,2,,,,,,,,,,,LearningTask,,,59.940207046,3,2015_Mar_19_0937,200,
200,y,200,,,,,,,,,0,0,0,0,None,1,1,5,0,0,0,0,0,None,,,y,1,0.468002080917,LearningTask,,,59.940207046,3,2015_Mar_19_0937,200,
200,y,200,,,,,,,,,0,0,0,0,None,1,1,5,0,,,,,,,,,,,LearningTask,,,59.940207046,3,2015_Mar_19_0937,200,
-200,t,200,,,,,,,,,0,0,0,0,None,1,2,6,1,0,0,0,0,None,,,h,0,0.584488153458,LearningTask,,,59.940207046,3,2015_Mar_19_0937,200,
-200,t,200,,,,,,,,,0,0,0,0,None,1,2,6,1,,,,,,,,,,,LearningTask,,,59.940207046,3,2015_Mar_19_0937,200,
-200,t,200,,,,,,,,,0,0,0,0,None,1,3,7,1,0,0,0,0,None,,,t,1,0.601095914841,LearningTask,,,59.940207046,3,2015_Mar_19_0937,200,
-200,t,200,,,,,,,,,0,0,0,0,None,1,3,7,1,1,0,1,0,None,,,h,0,0.417881011963,LearningTask,,,59.940207046,3,2015_Mar_19_0937,200,
-200,t,200,,,,,,,,,0,0,0,0,None,1,3,7,1,,,,,,,,,,,LearningTask,,,59.940207046,3,2015_Mar_19_0937,200,
-200,g,-200,,,,,,,,,0,0,0,0,None,2,0,8,3,0,0,0,0,None,,,g,1,0.46741604805,LearningTask,,,59.940207046,3,2015_Mar_19_0937,200,
-200,g,-200,,,,,,,,,0,0,0,0,None,2,0,8,3,1,0,1,0,None,,,g,1,0.485601902008,LearningTask,,,59.940207046,3,2015_Mar_19_0937,200,
-200,g,-200,,,,,,,,,0,0,0,0,None,2,0,8,3,,,,,,,,,,,LearningTask,,,59.940207046,3,2015_Mar_19_0937,200,
200,h,-200,,,,,,,,,0,0,0,0,None,2,1,9,2,0,0,0,0,None,,,y,0,0.552127122879,LearningTask,,,59.940207046,3,2015_Mar_19_0937,200,
200,h,-200,,,,,,,,,0,0,0,0,None,2,1,9,2,,,,,,,,,,,LearningTask,,,59.940207046,3,2015_Mar_19_0937,200,
-200,g,-200,,,,,,,,,0,0,0,0,None,2,2,10,3,0,0,0,0,None,,,g,1,0.41749382019,LearningTask,,,59.940207046,3,2015_Mar_19_0937,200,
-200,g,-200,,,,,,,,,0,0,0,0,None,2,2,10,3,1,0,1,0,None,,,g,1,0.600896120071,LearningTask,,,59.940207046,3,2015_Mar_19_0937,200,
-200,g,-200,,,,,,,,,0,0,0,0,None,2,2,10,3,,,,,,,,,,,LearningTask,,,59.940207046,3,2015_Mar_19_0937,200,
200,h,-200,,,,,,,,,0,0,0,0,None,2,3,11,2,0,0,0,0,None,,,y,0,0.450565099716,LearningTask,,,59.940207046,3,2015_Mar_19_0937,200,
200,h,-200,,,,,,,,,0,0,0,0,None,2,3,11,2,,,,,,,,,,,LearningTask,,,59.940207046,3,2015_Mar_19_0937,200,
-200,g,-200,,,,,,,,,0,0,0,0,None,3,0,12,3,0,0,0,0,None,,,g,1,0.334211111069,LearningTask,,,59.940207046,3,2015_Mar_19_0937,200,
-200,g,-200,,,,,,,,,0,0,0,0,None,3,0,12,3,1,0,1,0,None,,,g,1,0.534132003784,LearningTask,,,59.940207046,3,2015_Mar_19_0937,200,
-200,g,-200,,,,,,,,,0,0,0,0,None,3,0,12,3,,,,,,,,,,,LearningTask,,,59.940207046,3,2015_Mar_19_0937,200,
200,y,200,,,,,,,,,0,0,0,0,None,3,1,13,0,0,0,0,0,None,,,h,0,0.651664972305,LearningTask,,,59.940207046,3,2015_Mar_19_0937,200,
200,y,200,,,,,,,,,0,0,0,0,None,3,1,13,0,,,,,,,,,,,LearningTask,,,59.940207046,3,2015_Mar_19_0937,200,
200,y,200,,,,,,,,,0,0,0,0,None,3,2,14,0,0,0,0,0,None,,,y,1,0.534389972687,LearningTask,,,59.940207046,3,2015_Mar_19_0937,200,
200,y,200,,,,,,,,,0,0,0,0,None,3,2,14,0,1,0,1,0,None,,,y,1,0.667913913727,LearningTask,,,59.940207046,3,2015_Mar_19_0937,200,
200,y,200,,,,,,,,,0,0,0,0,None,3,2,14,0,,,,,,,,,,,LearningTask,,,59.940207046,3,2015_Mar_19_0937,200,
200,h,-200,,,,,,,,,0,0,0,0,None,3,3,15,2,0,0,0,0,None,,,y,0,0.567831039429,LearningTask,,,59.940207046,3,2015_Mar_19_0937,200,
200,h,-200,,,,,,,,,0,0,0,0,None,3,3,15,2,,,,,,,,,,,LearningTask,,,59.940207046,3,2015_Mar_19_0937,200,
-200,g,-200,,,,,,,,,0,0,0,0,None,4,0,16,3,0,0,0,0,None,,,g,1,0.301697015762,LearningTask,,,59.940207046,3,2015_Mar_19_0937,200,
-200,g,-200,,,,,,,,,0,0,0,0,None,4,0,16,3,1,0,1,0,None,,,g,1,0.684516906738,LearningTask,,,59.940207046,3,2015_Mar_19_0937,200,
-200,g,-200,,,,,,,,,0,0,0,0,None,4,0,16,3,,,,,,,,,,,LearningTask,,,59.940207046,3,2015_Mar_19_0937,200,
-200,t,200,,,,,,,,,0,0,0,0,None,4,1,17,1,0,0,0,0,None,,,y,0,0.519879102707,LearningTask,,,59.940207046,3,2015_Mar_19_0937,200,
-200,t,200,,,,,,,,,0,0,0,0,None,4,1,17,1,,,,,,,,,,,LearningTask,,,59.940207046,3,2015_Mar_19_0937,200,
200,h,-200,,,,,,,,,0,0,0,0,None,4,2,18,2,0,0,0,0,None,,,h,1,0.384172916412,LearningTask,,,59.940207046,3,2015_Mar_19_0937,200,
200,h,-200,,,,,,,,,0,0,0,0,None,4,2,18,2,1,0,1,0,None,,,h,1,0.450999975204,LearningTask,,,59.940207046,3,2015_Mar_19_0937,200,
200,h,-200,,,,,,,,,0,0,0,0,None,4,2,18,2,,,,,,,,,,,LearningTask,,,59.940207046,3,2015_Mar_19_0937,200,
200,h,-200,,,,,,,,,0,0,0,0,None,4,3,19,2,0,0,0,0,None,,,y,0,0.450955867767,LearningTask,,,59.940207046,3,2015_Mar_19_0937,200,
200,h,-200,,,,,,,,,0,0,0,0,None,4,3,19,2,,,,,,,,,,,LearningTask,,,59.940207046,3,2015_Mar_19_0937,200,
200,y,200,,,,,,,,,0,0,0,0,None,5,0,20,0,0,0,0,0,None,,,y,1,0.383776903152,LearningTask,,,59.940207046,3,2015_Mar_19_0937,200,
200,y,200,,,,,,,,,0,0,0,0,None,5,0,20,0,1,0,1,0,None,,,h,0,0.849979877472,LearningTask,,,59.940207046,3,2015_Mar_19_0937,200,
200,y,200,,,,,,,,,0,0,0,0,None,5,0,20,0,,,,,,,,,,,LearningTask,,,59.940207046,3,2015_Mar_19_0937,200,
-200,g,-200,,,,,,,,,0,0,0,0,None,5,1,21,3,0,0,0,0,None,,,h,0,0.517554998398,LearningTask,,,59.940207046,3,2015_Mar_19_0937,200,
-200,g,-200,,,,,,,,,0,0,0,0,None,5,1,21,3,1,0,1,0,None,,,g,1,0.384301900864,LearningTask,,,59.940207046,3,2015_Mar_19_0937,200,
-200,g,-200,,,,,,,,,0,0,0,0,None,5,1,21,3,,,,,,,,,,,LearningTask,,,59.940207046,3,2015_Mar_19_0937,200,
200,h,-200,,,,,,,,,0,0,0,0,None,5,2,22,2,0,0,0,0,None,,,y,0,0.902409076691,LearningTask,,,59.940207046,3,2015_Mar_19_0937,200,
200,h,-200,,,,,,,,,0,0,0,0,None,5,2,22,2,,,,,,,,,,,LearningTask,,,59.940207046,3,2015_Mar_19_0937,200,
-200,t,200,,,,,,,,,0,0,0,0,None,5,3,23,1,0,0,0,0,None,,,t,1,0.484668016434,LearningTask,,,59.940207046,3,2015_Mar_19_0937,200,
-200,t,200,,,,,,,,,0,0,0,0,None,5,3,23,1,1,0,1,0,None,,,t,1,0.60045003891,LearningTask,,,59.940207046,3,2015_Mar_19_0937,200,
-200,t,200,,,,,,,,,0,0,0,0,None,5,3,23,1,,,,,,,,,,,LearningTask,,,59.940207046,3,2015_Mar_19_0937,200,
-200,t,200,,,,,,,,,0,0,0,0,None,6,0,24,1,0,0,0,0,None,,,y,0,0.517990112305,LearningTask,,,59.940207046,3,2015_Mar_19_0937,200,
-200,t,200,,,,,,,,,0,0,0,0,None,6,0,24,1,,,,,,,,,,,LearningTask,,,59.940207046,3,2015_Mar_19_0937,200,
-200,t,200,,,,,,,,,0,0,0,0,None,6,1,25,1,0,0,0,0,None,,,h,0,0.367859125137,LearningTask,,,59.940207046,3,2015_Mar_19_0937,200,
-200,t,200,,,,,,,,,0,0,0,0,None,6,1,25,1,1,0,1,0,None,,,t,1,0.467698812485,LearningTask,,,59.940207046,3,2015_Mar_19_0937,200,
-200,t,200,,,,,,,,,0,0,0,0,None,6,1,25,1,,,,,,,,,,,LearningTask,,,59.940207046,3,2015_Mar_19_0937,200,
200,h,-200,,,,,,,,,0,0,0,0,None,6,2,26,2,0,0,0,0,None,,,h,1,0.467924118042,LearningTask,,,59.940207046,3,2015_Mar_19_0937,200,
200,h,-200,,,,,,,,,0,0,0,0,None,6,2,26,2,,,,,,,,,,,LearningTask,,,59.940207046,3,2015_Mar_19_0937,200,
200,h,-200,,,,,,,,,0,0,0,0,None,6,3,27,2,0,0,0,0,None,,,y,0,0.36750793457,LearningTask,,,59.940207046,3,2015_Mar_19_0937,200,
200,h,-200,,,,,,,,,0,0,0,0,None,6,3,27,2,,,,,,,,,,,LearningTask,,,59.940207046,3,2015_Mar_19_0937,200,
-200,g,-200,,,,,,,,,0,0,0,0,None,7,0,28,3,0,0,0,0,None,,,g,1,0.334403038025,LearningTask,,,59.940207046,3,2015_Mar_19_0937,200,
-200,g,-200,,,,,,,,,0,0,0,0,None,7,0,28,3,1,0,1,0,None,,,g,1,0.534591913223,LearningTask,,,59.940207046,3,2015_Mar_19_0937,200,
-200,g,-200,,,,,,,,,0,0,0,0,None,7,0,28,3,,,,,,,,,,,LearningTask,,,59.940207046,3,2015_Mar_19_0937,200,
-200,g,-200,,,,,,,,,0,0,0,0,None,7,1,29,3,0,0,0,0,None,,,g,1,0.501107215881,LearningTask,,,59.940207046,3,2015_Mar_19_0937,200,
-200,g,-200,,,,,,,,,0,0,0,0,None,7,1,29,3,,,,,,,,,,,LearningTask,,,59.940207046,3,2015_Mar_19_0937,200,
-200,t,200,,,,,,,,,0,0,0,0,None,7,2,30,1,0,0,0,0,None,,,t,1,0.467861890793,LearningTask,,,59.940207046,3,2015_Mar_19_0937,200,
-200,t,200,,,,,,,,,0,0,0,0,None,7,2,30,1,,,,,,,,,,,LearningTask,,,59.940207046,3,2015_Mar_19_0937,200,
-200,g,-200,,,,,,,,,0,0,0,0,None,7,3,31,3,0,0,0,0,None,,,g,1,0.433856010437,LearningTask,,,59.940207046,3,2015_Mar_19_0937,200,
-200,g,-200,,,,,,,,,0,0,0,0,None,7,3,31,3,,,,,,,,,,,LearningTask,,,59.940207046,3,2015_Mar_19_0937,200,
-200,t,200,,,,,,,,,0,0,0,0,None,8,0,32,1,0,0,0,0,None,,,t,1,0.351068019867,LearningTask,,,59.940207046,3,2015_Mar_19_0937,200,
-200,t,200,,,,,,,,,0,0,0,0,None,8,0,32,1,,,,,,,,,,,LearningTask,,,59.940207046,3,2015_Mar_19_0937,200,
200,h,-200,,,,,,,,,0,0,0,0,None,8,1,33,2,0,0,0,0,None,,,h,1,0.467888116837,LearningTask,,,59.940207046,3,2015_Mar_19_0937,200,
200,h,-200,,,,,,,,,0,0,0,0,None,8,1,33,2,,,,,,,,,,,LearningTask,,,59.940207046,3,2015_Mar_19_0937,200,
-200,t,200,,,,,,,,,0,0,0,0,None,8,2,34,1,0,0,0,0,None,,,t,1,0.417611122131,LearningTask,,,59.940207046,3,2015_Mar_19_0937,200,
-200,t,200,,,,,,,,,0,0,0,0,None,8,2,34,1,,,,,,,,,,,LearningTask,,,59.940207046,3,2015_Mar_19_0937,200,
200,h,-200,,,,,,,,,0,0,0,0,None,8,3,35,2,0,0,0,0,None,,,h,1,0.334398984909,LearningTask,,,59.940207046,3,2015_Mar_19_0937,200,
200,h,-200,,,,,,,,,0,0,0,0,None,8,3,35,2,,,,,,,,,,,LearningTask,,,59.940207046,3,2015_Mar_19_0937,200,
-200,g,-200,,,,,,,,,0,0,0,0,None,9,0,36,3,0,0,0,0,None,,,g,1,0.45095205307,LearningTask,,,59.940207046,3,2015_Mar_19_0937,200,
-200,g,-200,,,,,,,,,0,0,0,0,None,9,0,36,3,,,,,,,,,,,LearningTask,,,59.940207046,3,2015_Mar_19_0937,200,
200,y,200,,,,,,,,,0,0,0,0,None,9,1,37,0,0,0,0,0,None,,,y,1,0.367868900299,LearningTask,,,59.940207046,3,2015_Mar_19_0937,200,
200,y,200,,,,,,,,,0,0,0,0,None,9,1,37,0,,,,,,,,,,,LearningTask,,,59.940207046,3,2015_Mar_19_0937,200,
200,y,200,,,,,,,,,0,0,0,0,None,9,2,38,0,0,0,0,0,None,,,None,0,,LearningTask,,,59.940207046,3,2015_Mar_19_0937,200,
200,y,200,,,,,,,,,0,0,0,0,None,9,2,38,0,,,,,,,,,,,LearningTask,,,59.940207046,3,2015_Mar_19_0937,200,
200,y,200,,,,,,,,,0,0,0,0,None,9,3,39,0,0,0,0,0,None,,,None,0,,LearningTask,,,59.940207046,3,2015_Mar_19_0937,200,
200,y,200,,,,,,,,,0,0,0,0,None,9,3,39,0,1,0,1,0,None,,,None,0,,LearningTask,,,59.940207046,3,2015_Mar_19_0937,200,
200,y,200,,,,,,,,,0,0,0,0,None,9,3,39,0,,,,,,,,,,,LearningTask,,,59.940207046,3,2015_Mar_19_0937,200,
200,y,200,,,,,,,,,0,0,0,0,None,10,0,40,0,0,0,0,0,None,,,None,0,,LearningTask,,,59.940207046,3,2015_Mar_19_0937,200,
200,y,200,,,,,,,,,0,0,0,0,None,10,0,40,0,1,0,1,0,None,,,None,0,,LearningTask,,,59.940207046,3,2015_Mar_19_0937,200,
200,y,200,,,,,,,,,0,0,0,0,None,10,0,40,0,2,0,2,0,None,,,None,0,,LearningTask,,,59.940207046,3,2015_Mar_19_0937,200,
200,y,200,,,,,,,,,0,0,0,0,None,10,0,40,0,3,0,3,0,None,,,None,0,,LearningTask,,,59.940207046,3,2015_Mar_19_0937,200,
200,y,200,,,,,,,,,0,0,0,0,None,10,0,40,0,,,,,,,,,,,LearningTask,,,59.940207046,3,2015_Mar_19_0937,200,
200,y,200,,,,,,,,,0,0,0,0,None,10,1,41,0,0,0,0,0,None,,,None,0,,LearningTask,,,59.940207046,3,2015_Mar_19_0937,200,
200,y,200,,,,,,,,,0,0,0,0,None,10,1,41,0,1,0,1,0,None,,,None,0,,LearningTask,,,59.940207046,3,2015_Mar_19_0937,200,
200,y,200,,,,,,,,,0,0,0,0,None,10,1,41,0,2,0,2,0,None,,,None,0,,LearningTask,,,59.940207046,3,2015_Mar_19_0937,200,
200,y,200,,,,,,,,,0,0,0,0,None,10,1,41,0,3,0,3,0,None,,,None,0,,LearningTask,,,59.940207046,3,2015_Mar_19_0937,200,
200,y,200,,,,,,,,,0,0,0,0,None,10,1,41,0,4,0,4,0,None,,,None,0,,LearningTask,,,59.940207046,3,2015_Mar_19_0937,200,
200,y,200,,,,,,,,,0,0,0,0,None,10,1,41,0,5,0,5,0,None,,,y,1,0.367666959763,LearningTask,,,59.940207046,3,2015_Mar_19_0937,200,
200,y,200,,,,,,,,,0,0,0,0,None,10,1,41,0,6,0,6,0,None,,,h,0,0.367875814438,LearningTask,,,59.940207046,3,2015_Mar_19_0937,200,
200,y,200,,,,,,,,,0,0,0,0,None,10,1,41,0,7,0,7,0,None,,,y,1,0.634843111038,LearningTask,,,59.940207046,3,2015_Mar_19_0937,200,
200,y,200,,,,,,,,,0,0,0,0,None,10,1,41,0,,,,,,,,,,,LearningTask,,,59.940207046,3,2015_Mar_19_0937,200,
-200,t,200,,,,,,,,,0,0,0,0,None,10,2,42,1,0,0,0,0,None,,,t,1,0.584372997284,LearningTask,,,59.940207046,3,2015_Mar_19_0937,200,
-200,t,200,,,,,,,,,0,0,0,0,None,10,2,42,1,,,,,,,,,,,LearningTask,,,59.940207046,3,2015_Mar_19_0937,200,
200,y,200,,,,,,,,,0,0,0,0,None,10,3,43,0,0,0,0,0,None,,,h,0,0.467607021332,LearningTask,,,59.940207046,3,2015_Mar_19_0937,200,
200,y,200,,,,,,,,,0,0,0,0,None,10,3,43,0,,,,,,,,,,,LearningTask,,,59.940207046,3,2015_Mar_19_0937,200,
-200,g,-200,,,,,,,,,0,0,0,0,None,11,0,44,3,0,0,0,0,None,,,g,1,0.501146793365,LearningTask,,,59.940207046,3,2015_Mar_19_0937,200,
-200,g,-200,,,,,,,,,0,0,0,0,None,11,0,44,3,1,0,1,0,None,,,g,1,0.700906991959,LearningTask,,,59.940207046,3,2015_Mar_19_0937,200,
-200,g,-200,,,,,,,,,0,0,0,0,None,11,0,44,3,,,,,,,,,,,LearningTask,,,59.940207046,3,2015_Mar_19_0937,200,
200,y,200,,,,,,,,,0,0,0,0,None,11,1,45,0,0,0,0,0,None,,,h,0,0.417778968811,LearningTask,,,59.940207046,3,2015_Mar_19_0937,200,
200,y,200,,,,,,,,,0,0,0,0,None,11,1,45,0,,,,,,,,,,,LearningTask,,,59.940207046,3,2015_Mar_19_0937,200,
200,h,-200,,,,,,,,,0,0,0,0,None,11,2,46,2,0,0,0,0,None,,,h,1,0.384160995483,LearningTask,,,59.940207046,3,2015_Mar_19_0937,200,
200,h,-200,,,,,,,,,0,0,0,0,None,11,2,46,2,1,0,1,0,None,,,h,1,0.50092291832,LearningTask,,,59.940207046,3,2015_Mar_19_0937,200,
200,h,-200,,,,,,,,,0,0,0,0,None,11,2,46,2,,,,,,,,,,,LearningTask,,,59.940207046,3,2015_Mar_19_0937,200,
-200,t,200,,,,,,,,,0,0,0,0,None,11,3,47,1,0,0,0,0,None,,,h,0,0.399888038635,LearningTask,,,59.940207046,3,2015_Mar_19_0937,200,
-200,t,200,,,,,,,,,0,0,0,0,None,11,3,47,1,,,,,,,,,,,LearningTask,,,59.940207046,3,2015_Mar_19_0937,200,
-200,g,-200,,,,,,,,,0,0,0,0,None,12,0,48,3,0,0,0,0,None,,,g,1,0.367531061172,LearningTask,,,59.940207046,3,2015_Mar_19_0937,200,
-200,g,-200,,,,,,,,,0,0,0,0,None,12,0,48,3,1,0,1,0,None,,,g,1,0.56823182106,LearningTask,,,59.940207046,3,2015_Mar_19_0937,200,
-200,g,-200,,,,,,,,,0,0,0,0,None,12,0,48,3,,,,,,,,,,,LearningTask,,,59.940207046,3,2015_Mar_19_0937,200,
-200,t,200,,,,,,,,,0,0,0,0,None,12,1,49,1,0,0,0,0,None,,,h,0,0.434260845184,LearningTask,,,59.940207046,3,2015_Mar_19_0937,200,
-200,t,200,,,,,,,,,0,0,0,0,None,12,1,49,1,,,,,,,,,,,LearningTask,,,59.940207046,3,2015_Mar_19_0937,200,
-200,g,-200,,,,,,,,,0,0,0,0,None,12,2,50,3,0,0,0,0,None,,,g,1,0.384170055389,LearningTask,,,59.940207046,3,2015_Mar_19_0937,200,
-200,g,-200,,,,,,,,,0,0,0,0,None,12,2,50,3,1,0,1,0,None,,,g,1,0.668174028397,LearningTask,,,59.940207046,3,2015_Mar_19_0937,200,
-200,g,-200,,,,,,,,,0,0,0,0,None,12,2,50,3,,,,,,,,,,,LearningTask,,,59.940207046,3,2015_Mar_19_0937,200,
-200,g,-200,,,,,,,,,0,0,0,0,None,12,3,51,3,0,0,0,0,None,,,None,0,,LearningTask,,,59.940207046,3,2015_Mar_19_0937,200,
-200,g,-200,,,,,,,,,0,0,0,0,None,12,3,51,3,,,,,,,,,,,LearningTask,,,59.940207046,3,2015_Mar_19_0937,200,
200,y,200,,,,,,,,,0,0,0,0,None,13,0,52,0,0,0,0,0,None,,,y,1,0.401100873947,LearningTask,,,59.940207046,3,2015_Mar_19_0937,200,
200,y,200,,,,,,,,,0,0,0,0,None,13,0,52,0,1,0,1,0,None,,,y,1,0.617733955383,LearningTask,,,59.940207046,3,2015_Mar_19_0937,200,
200,y,200,,,,,,,,,0,0,0,0,None,13,0,52,0,,,,,,,,,,,LearningTask,,,59.940207046,3,2015_Mar_19_0937,200,
-200,g,-200,,,,,,,,,0,0,0,0,None,13,1,53,3,0,0,0,0,None,,,h,0,0.367805957794,LearningTask,,,59.940207046,3,2015_Mar_19_0937,200,
-200,g,-200,,,,,,,,,0,0,0,0,None,13,1,53,3,,,,,,,,,,,LearningTask,,,59.940207046,3,2015_Mar_19_0937,200,
-200,g,-200,,,,,,,,,0,0,0,0,None,13,2,54,3,0,0,0,0,None,,,g,1,0.451076984406,LearningTask,,,59.940207046,3,2015_Mar_19_0937,200,
-200,g,-200,,,,,,,,,0,0,0,0,None,13,2,54,3,1,0,1,0,None,,,g,1,0.517417907715,LearningTask,,,59.940207046,3,2015_Mar_19_0937,200,
-200,g,-200,,,,,,,,,0,0,0,0,None,13,2,54,3,,,,,,,,,,,LearningTask,,,59.940207046,3,2015_Mar_19_0937,200,
200,h,-200,,,,,,,,,0,0,0,0,None,13,3,55,2,0,0,0,0,None,,,y,0,0.467420101166,LearningTask,,,59.940207046,3,2015_Mar_19_0937,200,
200,h,-200,,,,,,,,,0,0,0,0,None,13,3,55,2,,,,,,,,,,,LearningTask,,,59.940207046,3,2015_Mar_19_0937,200,
-200,g,-200,,,,,,,,,0,0,0,0,None,14,0,56,3,0,0,0,0,None,,,g,1,0.418163061142,LearningTask,,,59.940207046,3,2015_Mar_19_0937,200,
-200,g,-200,,,,,,,,,0,0,0,0,None,14,0,56,3,1,0,1,0,None,,,g,1,0.552335977554,LearningTask,,,59.940207046,3,2015_Mar_19_0937,200,
-200,g,-200,,,,,,,,,0,0,0,0,None,14,0,56,3,,,,,,,,,,,LearningTask,,,59.940207046,3,2015_Mar_19_0937,200,
200,y,200,,,,,,,,,0,0,0,0,None,14,1,57,0,0,0,0,0,None,,,h,0,0.435267925262,LearningTask,,,59.940207046,3,2015_Mar_19_0937,200,
200,y,200,,,,,,,,,0,0,0,0,None,14,1,57,0,,,,,,,,,,,LearningTask,,,59.940207046,3,2015_Mar_19_0937,200,
-200,t,200,,,,,,,,,0,0,0,0,None,14,2,58,1,0,0,0,0,None,,,t,1,0.334659814835,LearningTask,,,59.940207046,3,2015_Mar_19_0937,200,
-200,t,200,,,,,,,,,0,0,0,0,None,14,2,58,1,1,0,1,0,None,,,t,1,0.517772197723,LearningTask,,,59.940207046,3,2015_Mar_19_0937,200,
-200,t,200,,,,,,,,,0,0,0,0,None,14,2,58,1,,,,,,,,,,,LearningTask,,,59.940207046,3,2015_Mar_19_0937,200,
-200,g,-200,,,,,,,,,0,0,0,0,None,14,3,59,3,0,0,0,0,None,,,h,0,0.36812710762,LearningTask,,,59.940207046,3,2015_Mar_19_0937,200,
-200,g,-200,,,,,,,,,0,0,0,0,None,14,3,59,3,,,,,,,,,,,LearningTask,,,59.940207046,3,2015_Mar_19_0937,200,
-200,g,-200,,,,,,,,,0,0,0,0,None,15,0,60,3,0,0,0,0,None,,,y,0,0.0173590183258,LearningTask,,,59.940207046,3,2015_Mar_19_0937,200,
-200,g,-200,,,,,,,,,0,0,0,0,None,15,0,60,3,1,0,1,0,None,,,g,1,0.517781019211,LearningTask,,,59.940207046,3,2015_Mar_19_0937,200,
-200,g,-200,,,,,,,,,0,0,0,0,None,15,0,60,3,,,,,,,,,,,LearningTask,,,59.940207046,3,2015_Mar_19_0937,200,
200,y,200,,,,,,,,,0,0,0,0,None,15,1,61,0,0,0,0,0,None,,,h,0,0.334221839905,LearningTask,,,59.940207046,3,2015_Mar_19_0937,200,
200,y,200,,,,,,,,,0,0,0,0,None,15,1,61,0,,,,,,,,,,,LearningTask,,,59.940207046,3,2015_Mar_19_0937,200,
-200,t,200,,,,,,,,,0,0,0,0,None,15,2,62,1,0,0,0,0,None,,,t,1,0.367454051971,LearningTask,,,59.940207046,3,2015_Mar_19_0937,200,
-200,t,200,,,,,,,,,0,0,0,0,None,15,2,62,1,1,0,1,0,None,,,t,1,0.551078081131,LearningTask,,,59.940207046,3,2015_Mar_19_0937,200,
-200,t,200,,,,,,,,,0,0,0,0,None,15,2,62,1,,,,,,,,,,,LearningTask,,,59.940207046,3,2015_Mar_19_0937,200,
200,y,200,,,,,,,,,0,0,0,0,None,15,3,63,0,0,0,0,0,None,,,h,0,0.33438205719,LearningTask,,,59.940207046,3,2015_Mar_19_0937,200,
200,y,200,,,,,,,,,0,0,0,0,None,15,3,63,0,,,,,,,,,,,LearningTask,,,59.940207046,3,2015_Mar_19_0937,200,
-200,t,200,,,,,,,,,0,0,0,0,None,16,0,64,1,0,0,0,0,None,,,t,1,0.30109000206,LearningTask,,,59.940207046,3,2015_Mar_19_0937,200,
-200,t,200,,,,,,,,,0,0,0,0,None,16,0,64,1,1,0,1,0,None,,,t,1,0.584338903427,LearningTask,,,59.940207046,3,2015_Mar_19_0937,200,
-200,t,200,,,,,,,,,0,0,0,0,None,16,0,64,1,,,,,,,,,,,LearningTask,,,59.940207046,3,2015_Mar_19_0937,200,
200,y,200,,,,,,,,,0,0,0,0,None,16,1,65,0,0,0,0,0,None,,,h,0,0.26756811142,LearningTask,,,59.940207046,3,2015_Mar_19_0937,200,
200,y,200,,,,,,,,,0,0,0,0,None,16,1,65,0,,,,,,,,,,,LearningTask,,,59.940207046,3,2015_Mar_19_0937,200,
-200,t,200,,,,,,,,,0,0,0,0,None,16,2,66,1,0,0,0,0,None,,,t,1,0.434056997299,LearningTask,,,59.940207046,3,2015_Mar_19_0937,200,
