xPos,corrAns,yPos,corrGoResp,yPosGoStim,xPosGoStim,pracTrials.thisRepN,pracTrials.thisTrialN,pracTrials.thisN,pracTrials.thisIndex,ReDoLoopPrac.thisRepN,ReDoLoopPrac.thisTrialN,ReDoLoopPrac.thisN,ReDoLoopPrac.thisIndex,ReDoLoopPrac.thisTrial,pracStopTrials.thisRepN,pracStopTrials.thisTrialN,pracStopTrials.thisN,pracStopTrials.thisIndex,Blocks.thisRepN,Blocks.thisTrialN,Blocks.thisN,Blocks.thisIndex,trials.thisRepN,trials.thisTrialN,trials.thisN,trials.thisIndex,ReDoLoopMain.thisRepN,ReDoLoopMain.thisTrialN,ReDoLoopMain.thisN,ReDoLoopMain.thisIndex,ReDoLoopMain.thisTrial,StopBlocks.thisRepN,StopBlocks.thisTrialN,StopBlocks.thisN,StopBlocks.thisIndex,StopTrials.thisRepN,StopTrials.thisTrialN,StopTrials.thisN,StopTrials.thisIndex,auctionBlocks.thisRepN,auctionBlocks.thisTrialN,auctionBlocks.thisN,auctionBlocks.thisIndex,auctionTrials.thisRepN,auctionTrials.thisTrialN,auctionTrials.thisN,auctionTrials.thisIndex,learningTrialList,learningPracTrialList,stopTrialList,stopPracTrialList,auctionTrialList,ok1.keys,ok1.rt,resp.keys,resp.corr,resp.rt,feedbackResp.keys,feedbackResp.corr,currentReward,currentStimulus,currentStimType,firstPracComputedRewardOutput,firstPracLearningStimOnset,firstPracLearningFixOnset,firstPracPresentationRT,firstPracPresentationAcc,firstPracPresentationResp,firstPracEndTrialTimeStamp,StartTrialTimeStamp,trialType,goStim,stimType,stopStimValue,goResp.keys,goResp.corr,goResp.rt,key_resp_9.keys,key_resp_9.corr,fixStopOnset,goStimOnset,EndTrialTimeStamp,stopSignalOnset,key_resp_3.keys,key_resp_3.rt,firstComputedRewardOutput,firstLearningStimOnset,firstLearningFixOnset,firstPresentationRT,firstPresentationAcc,firstPresentationResp,firstEndTrialTimeStamp,key_resp_7.keys,key_resp_7.rt,secondComputedRewardOutput,secondLearningStimOnset,secondLearningFixOnset,secondPresentationRT,secondPresentationAcc,secondPresentationResp,secondEndTrialTimeStamp,beginningSSD,EndingSSD,key_resp_9.rt,key_resp_4.keys,key_resp_4.rt,auctionResponse.keys,auctionResponse.rt,auctionStimDuration,auctionStim,auctionAmounts,auctionStimValue,auctionCondition,key_resp_5.keys,key_resp_5.rt,shuffledRewardList,chosenReward1,chosenReward2,chosenReward3,chosenReward4,chosenReward5,key_resp_6.keys,key_resp_6.rt,date,frameRate,expName,session,participant,
,,,,,,,,,,,,,,,,,,,,,,,,,,,,,,,,,,,,,,,,,,,,,,,,[],[],[],[],[],9,3.57749414444,,,,,,,,,,,,,,,,,,,,,,,,,,,,,,,,,,,,,,,,,,,,,,,,,,,,,,,,,,,,,,,,,,,,,,2015_Jun_18_1102,60.1511557535,LearningTask,1,22,
200,w,200,,,,0,0,0,4,,,,,,,,,,,,,,,,,,,,,,,,,,,,,,,,,,,,,,,,,,,,,,w,1,0.418199062347,None,0,1.0,circlewhite.gif,go,1.22,0.508646965027,0.00316190719604,0.418199062347,1,w,12.7601230145,,,,,,,,,,,,,,,,,,,,,,,,,,,,,,,,,,,,,,,,,,,,,,,,,,,,,,,2015_Jun_18_1102,60.1511557535,LearningTask,1,22,
-200,a,-200,,,,0,1,1,3,,,,,,,,,,,,,,,,,,,,,,,,,,,,,,,,,,,,,,,,,,,,,,a,1,0.367171049118,None,0,1.0,circlewhite.gif,go,0.88,0.514781951904,0.00104689598083,0.367171049118,1,a,15.7628707886,,,,,,,,,,,,,,,,,,,,,,,,,,,,,,,,,,,,,,,,,,,,,,,,,,,,,,,2015_Jun_18_1102,60.1511557535,LearningTask,1,22,
-200,q,200,,,,0,2,2,9,,,,,,,,,,,,,,,,,,,,,,,,,,,,,,,,,,,,,,,,,,,,,,q,1,0.317342996597,None,0,0.5,hexagonmagenta.gif,go,0.6,0.515070199966,0.00128817558289,0.317342996597,1,q,18.7661399841,,,,,,,,,,,,,,,,,,,,,,,,,,,,,,,,,,,,,,,,,,,,,,,,,,,,,,,2015_Jun_18_1102,60.1511557535,LearningTask,1,22,
200,w,200,,,,0,3,3,0,,,,,,,,,,,,,,,,,,,,,,,,,,,,,,,,,,,,,,,,,,,,,,w,1,0.401379108429,None,0,0.5,invertedtrianglegreen.gif,stop,0.65,0.515234947205,0.00128197669983,0.401379108429,1,w,21.7694017887,,,,,,,,,,,,,,,,,,,,,,,,,,,,,,,,,,,,,,,,,,,,,,,,,,,,,,,2015_Jun_18_1102,60.1511557535,LearningTask,1,22,
-200,a,-200,,,,0,4,4,7,,,,,,,,,,,,,,,,,,,,,,,,,,,,,,,,,,,,,,,,,,,,,,a,1,0.333787918091,None,0,0.5,invertedtrianglegreen.gif,stop,0,0.514945030212,0.000998973846436,0.333787918091,1,a,24.7728979588,,,,,,,,,,,,,,,,,,,,,,,,,,,,,,,,,,,,,,,,,,,,,,,,,,,,,,,2015_Jun_18_1102,60.1511557535,LearningTask,1,22,
200,s,-200,,,,0,5,5,2,,,,,,,,,,,,,,,,,,,,,,,,,,,,,,,,,,,,,,,,,,,,,,s,1,0.417614936829,None,0,0.5,hexagonmagenta.gif,go,0.31,0.515340805054,0.000892877578735,0.417614936829,1,s,27.7761929035,,,,,,,,,,,,,,,,,,,,,,,,,,,,,,,,,,,,,,,,,,,,,,,,,,,,,,,2015_Jun_18_1102,60.1511557535,LearningTask,1,22,
200,w,200,,,,0,6,6,8,,,,,,,,,,,,,,,,,,,,,,,,,,,,,,,,,,,,,,,,,,,,,,w,1,0.367566108704,None,0,4.0,diamondcyan.gif,stop,3.96,0.515018939972,0.000930070877075,0.367566108704,1,w,30.7798278332,,,,,,,,,,,,,,,,,,,,,,,,,,,,,,,,,,,,,,,,,,,,,,,,,,,,,,,2015_Jun_18_1102,60.1511557535,LearningTask,1,22,
-200,q,200,,,,0,7,7,1,,,,,,,,,,,,,,,,,,,,,,,,,,,,,,,,,,,,,,,,,,,,,,q,1,0.417614936829,None,0,4.0,squareorange.gif,go,3.89,0.51464009285,0.00133299827576,0.417614936829,1,q,33.7830150127,,,,,,,,,,,,,,,,,,,,,,,,,,,,,,,,,,,,,,,,,,,,,,,,,,,,,,,2015_Jun_18_1102,60.1511557535,LearningTask,1,22,
200,s,-200,,,,0,8,8,6,,,,,,,,,,,,,,,,,,,,,,,,,,,,,,,,,,,,,,,,,,,,,,s,1,0.384104013443,None,0,0.5,hexagonmagenta.gif,go,0.27,0.51486492157,0.000903129577637,0.384104013443,1,s,36.786208868,,,,,,,,,,,,,,,,,,,,,,,,,,,,,,,,,,,,,,,,,,,,,,,,,,,,,,,2015_Jun_18_1102,60.1511557535,LearningTask,1,22,
-200,q,200,,,,0,9,9,5,,,,,,,,,,,,,,,,,,,,,,,,,,,,,,,,,,,,,,,,,,,,,,q,1,0.467801094055,None,0,1.0,crossgray.gif,stop,0.86,0.515151977539,0.000901937484741,0.467801094055,1,q,39.7897408009,,,,,,,,,,,,,,,,,,,,,,,,,,,,,,,,,,,,,,,,,,,,,,,,,,,,,,,2015_Jun_18_1102,60.1511557535,LearningTask,1,22,
,,,z,0,-200,,,,,,,,,,0,0,0,0,,,,,,,,,,,,,,,,,,,,,,,,,,,,,,,,,,,,,,,,,,,,,,,,,,,,103.599108934,go,squareorange.gif,go,4.0,z,1,0.350687026978,None,0,0.00129103660583,0.510766029358,106.597934961,,,,,,,,,,,,,,,,,,,,,,,,,,,,,,,,,,,,,,,,,,2015_Jun_18_1102,60.1511557535,LearningTask,1,22,
,,,m,0,200,,,,,,,,,,0,1,1,1,,,,,,,,,,,,,,,,,,,,,,,,,,,,,,,,,,,,,,,,,,,,,,,,,,,,106.598401785,stop,invertedtrianglegreen.gif,stop,0.5,m,1,0.334383964539,None,0,0.000926971435547,0.515069007874,109.600789785,0.765225887299,,,,,,,,,,,,,,,,,,,,,,,,,,,,,,,,,,,,,,,,,2015_Jun_18_1102,60.1511557535,LearningTask,1,22,
,,,z,0,-200,,,,,,,,,,1,0,2,0,,,,,,,,,,,,,,,,,,,,,,,,,,,,,,,,,,,,,,,,,,,,,,,,,,,,109.60116291,go,hexagonmagenta.gif,go,0.5,z,1,0.317715883255,None,0,0.00097918510437,0.515710115433,112.604063988,,,,,,,,,,,,,,,,,,,,,,,,,,,,,,,,,,,,,,,,,,2015_Jun_18_1102,60.1511557535,LearningTask,1,22,
,,,z,0,-200,,,,,,,,,,1,1,3,0,,,,,,,,,,,,,,,,,,,,,,,,,,,,,,,,,,,,,,,,,,,,,,,,,,,,112.60442996,go,squareorange.gif,go,4.0,z,1,0.284003019333,None,0,0.000946044921875,0.515928030014,115.60747385,,,,,,,,,,,,,,,,,,,,,,,,,,,,,,,,,,,,,,,,,,2015_Jun_18_1102,60.1511557535,LearningTask,1,22,
,,,m,0,200,,,,,,,,,,2,0,4,1,,,,,,,,,,,,,,,,,,,,,,,,,,,,,,,,,,,,,,,,,,,,,,,,,,,,115.607841015,go,squareorange.gif,go,4.0,m,1,0.317224025726,None,0,0.00106596946716,0.515959024429,118.610852003,,,,,,,,,,,,,,,,,,,,,,,,,,,,,,,,,,,,,,,,,,2015_Jun_18_1102,60.1511557535,LearningTask,1,22,
,,,m,0,200,,,,,,,,,,2,1,5,1,,,,,,,,,,,,,,,,,,,,,,,,,,,,,,,,,,,,,,,,,,,,,,,,,,,,118.611259937,stop,diamondcyan.gif,stop,4.0,m,1,0.350584030151,None,0,0.000951051712036,0.515640974045,121.614131927,0.766132116318,,,,,,,,,,,,,,,,,,,,,,,,,,,,,,,,,,,,,,,,,2015_Jun_18_1102,60.1511557535,LearningTask,1,22,
,,,m,0,200,,,,,,,,,,3,0,6,1,,,,,,,,,,,,,,,,,,,,,,,,,,,,,,,,,,,,,,,,,,,,,,,,,,,,121.614496946,stop,diamondcyan.gif,stop,4.0,m,1,0.434803009033,None,0,0.000967979431152,0.515650033951,124.617525816,0.766266107559,,,,,,,,,,,,,,,,,,,,,,,,,,,,,,,,,,,,,,,,,2015_Jun_18_1102,60.1511557535,LearningTask,1,22,
,,,z,0,-200,,,,,,,,,,3,1,7,0,,,,,,,,,,,,,,,,,,,,,,,,,,,,,,,,,,,,,,,,,,,,,,,,,,,,124.617888927,stop,invertedtrianglegreen.gif,stop,0.5,z,1,0.617979049683,None,0,0.00101089477539,0.515733003616,127.620967865,0.766389846802,,,,,,,,,,,,,,,,,,,,,,,,,,,,,,,,,,,,,,,,,2015_Jun_18_1102,60.1511557535,LearningTask,1,22,
,,,m,0,200,,,,,,,,,,4,0,8,1,,,,,,,,,,,,,,,,,,,,,,,,,,,,,,,,,,,,,,,,,,,,,,,,,,,,127.621339798,go,hexagonmagenta.gif,go,0.5,m,1,0.434287071228,None,0,0.000968933105469,0.515587091446,130.623936892,,,,,,,,,,,,,,,,,,,,,,,,,,,,,,,,,,,,,,,,,,2015_Jun_18_1102,60.1511557535,LearningTask,1,22,
,,,z,0,-200,,,,,,,,,,4,1,9,0,,,,,,,,,,,,,,,,,,,,,,,,,,,,,,,,,,,,,,,,,,,,,,,,,,,,130.624300003,go,triangleyellow.gif,go,2.0,z,1,0.451201915741,None,0,0.00145077705383,0.516223907471,133.627774,,,,,,,,,,,,,,,,,,,,,,,,,,,,,,,,,,,,,,,,,,2015_Jun_18_1102,60.1511557535,LearningTask,1,22,
,,,,,,,,,,,,,,,,,,,,,,,,,,,,,,,,,,,,,,,,,,,,,,,,,,,,,,,,,,,,,,,,,,,,,,,,,,,,,,,,,,,,space,24.1654009819,,,,,,,,,,,,,,,,,,,,,,,,,,,,,,,,,,,,,,,2015_Jun_18_1102,60.1511557535,LearningTask,1,22,
,,,,,,,,,,,,,,,,,,,,,,,,,,,,,,,,,,,,,,,,,,,,,,,,,,,,,9,29.0321848392,,,,,,,,,,,,,,,,,,,,,,,,,,,,,,,,,,,,,,,,,,,,,,,,,,,,,,,,,,,,,,,,,,,,,,2015_Jun_18_1102,60.1511557535,LearningTask,1,22,
-200,q,200,,,,,,,,,,,,,,,,,0,0,0,0,0,0,0,1,,,,,,,,,,,,,,,,,,,,,,,,,,,,,q,1,0.55110001564,None,0,4.0,squareorange.gif,go,,,,,,,,,,,,,,,,,,,,,,,,4.24,0.508790016174,0.000885009765625,0.55110001564,1,q,189.958859921,,,,,,,,,,,,,,,,,,,,,,,,,,,,,,,,2015_Jun_18_1102,60.1511557535,LearningTask,1,22,
200,w,200,,,,,,,,,,,,,,,,,0,0,0,0,0,1,1,0,,,,,,,,,,,,,,,,,,,,,,,,,,,,,w,1,0.417102098465,None,0,2.0,triangleyellow.gif,go,,,,,,,,,,,,,,,,,,,,,,,,2.15,0.513440132141,0.00088906288147,0.417102098465,1,w,192.961500883,,,,,,,,,,,,,,,,,,,,,,,,,,,,,,,,2015_Jun_18_1102,60.1511557535,LearningTask,1,22,
-200,a,-200,,,,,,,,,,,,,,,,,0,0,0,0,0,2,2,3,,,,,,,,,,,,,,,,,,,,,,,,,,,,,a,1,0.350769996643,None,0,4.0,diamondcyan.gif,stop,,,,,,,,,,,,,,,,,,,,,,,,0,0.514091968536,0.00123000144958,0.350769996643,1,a,195.96469593,,,,,,,,,,,,,,,,,,,,,,,,,,,,,,,,2015_Jun_18_1102,60.1511557535,LearningTask,1,22,
200,w,200,,,,,,,,,,,,,,,,,0,0,0,0,0,3,3,0,,,,,,,,,,,,,,,,,,,,,,,,,,,,,w,1,0.401285171509,None,0,4.0,squareorange.gif,go,,,,,,,,,,,,,,,,,,,,,,,,3.96,0.514154911041,0.00094199180603,0.401285171509,1,w,198.967945814,,,,,,,,,,,,,,,,,,,,,,,,,,,,,,,,2015_Jun_18_1102,60.1511557535,LearningTask,1,22,
-200,a,-200,,,,,,,,,,,,,,,,,0,0,0,0,1,0,4,3,,,,,,,,,,,,,,,,,,,,,,,,,,,,,a,1,0.384303092957,None,0,1.0,circlewhite.gif,go,,,,,,,,,,,,,,,,,,,,,,,,0,0.514620065689,0.00090217590332,0.384303092957,1,a,201.971308947,,,,,,,,,,,,,,,,,,,,,,,,,,,,,,,,2015_Jun_18_1102,60.1511557535,LearningTask,1,22,
200,w,200,,,,,,,,,,,,,,,,,0,0,0,0,1,1,5,0,,,,,,,,,,,,,,,,,,,,,,,,,,,,,w,1,0.317592144012,None,0,0.5,hexagonmagenta.gif,go,,,,,,,,,,,,,,,,,,,,,,,,0.68,0.514308929443,0.00100207328796,0.317592144012,1,w,204.974637985,,,,,,,,,,,,,,,,,,,,,,,,,,,,,,,,2015_Jun_18_1102,60.1511557535,LearningTask,1,22,
200,w,200,,,,,,,,,,,,,,,,,0,0,0,0,1,2,6,0,,,,,,,,,,,,,,,,,,,,,,,,,,,,,w,1,0.384575128555,None,0,1.0,crossgray.gif,stop,,,,,,,,,,,,,,,,,,,,,,,,1.06,0.513955116272,0.000945091247559,0.384575128555,1,w,207.97791791,,,,,,,,,,,,,,,,,,,,,,,,,,,,,,,,2015_Jun_18_1102,60.1511557535,LearningTask,1,22,
-200,a,-200,,,,,,,,,,,,,,,,,0,0,0,0,1,3,7,3,,,,,,,,,,,,,,,,,,,,,,,,,,,,,a,1,0.350888967514,None,0,2.0,lineblue.gif,stop,,,,,,,,,,,,,,,,,,,,,,,,2.06,0.514664888382,0.000886917114258,0.350888967514,1,a,210.981472969,,,,,,,,,,,,,,,,,,,,,,,,,,,,,,,,2015_Jun_18_1102,60.1511557535,LearningTask,1,22,
200,w,200,,,,,,,,,,,,,,,,,0,0,0,0,2,0,8,0,,,,,,,,,,,,,,,,,,,,,,,,,,,,,w,1,0.351381063461,None,0,2.0,triangleyellow.gif,go,,,,,,,,,,,,,,,,,,,,,,,,2.25,0.514321804047,0.000977993011475,0.351381063461,1,w,213.9851408,,,,,,,,,,,,,,,,,,,,,,,,,,,,,,,,2015_Jun_18_1102,60.1511557535,LearningTask,1,22,
200,w,200,,,,,,,,,,,,,,,,,0,0,0,0,2,1,9,0,,,,,,,,,,,,,,,,,,,,,,,,,,,,,w,1,0.334201097488,None,0,0.5,hexagonmagenta.gif,go,,,,,,,,,,,,,,,,,,,,,,,,0.72,0.513696908951,0.000936985015869,0.334201097488,1,w,216.988215923,,,,,,,,,,,,,,,,,,,,,,,,,,,,,,,,2015_Jun_18_1102,60.1511557535,LearningTask,1,22,
-200,a,-200,,,,,,,,,,,,,,,,,0,0,0,0,2,2,10,3,,,,,,,,,,,,,,,,,,,,,,,,,,,,,a,1,0.400501966476,None,0,2.0,lineblue.gif,stop,,,,,,,,,,,,,,,,,,,,,,,,2.23,0.514245986938,0.000962972640991,0.400501966476,1,a,219.991825819,,,,,,,,,,,,,,,,,,,,,,,,,,,,,,,,2015_Jun_18_1102,60.1511557535,LearningTask,1,22,
200,s,-200,,,,,,,,,,,,,,,,,0,0,0,0,2,3,11,2,,,,,,,,,,,,,,,,,,,,,,,,,,,,,s,1,0.384509086609,None,0,0.5,invertedtrianglegreen.gif,stop,,,,,,,,,,,,,,,,,,,,,,,,0.57,0.51379108429,0.000910997390747,0.384509086609,1,s,222.995435953,,,,,,,,,,,,,,,,,,,,,,,,,,,,,,,,2015_Jun_18_1102,60.1511557535,LearningTask,1,22,
-200,a,-200,,,,,,,,,,,,,,,,,0,0,0,0,3,0,12,3,,,,,,,,,,,,,,,,,,,,,,,,,,,,,a,1,0.367975950241,None,0,0.5,hexagonmagenta.gif,go,,,,,,,,,,,,,,,,,,,,,,,,0.45,0.513342857361,0.000922918319702,0.367975950241,1,a,225.998250008,,,,,,,,,,,,,,,,,,,,,,,,,,,,,,,,2015_Jun_18_1102,60.1511557535,LearningTask,1,22,
200,s,-200,,,,,,,,,,,,,,,,,0,0,0,0,3,1,13,2,,,,,,,,,,,,,,,,,,,,,,,,,,,,,s,1,0.351197957993,None,0,0.5,invertedtrianglegreen.gif,stop,,,,,,,,,,,,,,,,,,,,,,,,0.43,0.514288902283,0.000900983810425,0.351197957993,1,s,229.001554012,,,,,,,,,,,,,,,,,,,,,,,,,,,,,,,,2015_Jun_18_1102,60.1511557535,LearningTask,1,22,
-200,q,200,,,,,,,,,,,,,,,,,0,0,0,0,3,2,14,1,,,,,,,,,,,,,,,,,,,,,,,,,,,,,q,1,0.467390060425,None,0,0.5,hexagonmagenta.gif,go,,,,,,,,,,,,,,,,,,,,,,,,0.36,0.514345884323,0.000897884368896,0.467390060425,1,q,232.005054951,,,,,,,,,,,,,,,,,,,,,,,,,,,,,,,,2015_Jun_18_1102,60.1511557535,LearningTask,1,22,
-200,q,200,,,,,,,,,,,,,,,,,0,0,0,0,3,3,15,1,,,,,,,,,,,,,,,,,,,,,,,,,,,,,q,1,0.484033107758,None,0,1.0,circlewhite.gif,go,,,,,,,,,,,,,,,,,,,,,,,,0.82,0.514340877533,0.000900983810425,0.484033107758,1,q,235.008253813,,,,,,,,,,,,,,,,,,,,,,,,,,,,,,,,2015_Jun_18_1102,60.1511557535,LearningTask,1,22,
200,s,-200,,,,,,,,,,,,,,,,,0,0,0,0,4,0,16,2,,,,,,,,,,,,,,,,,,,,,,,,,,,,,s,1,0.36775803566,None,0,2.0,lineblue.gif,stop,,,,,,,,,,,,,,,,,,,,,,,,1.8,0.514363050461,0.00210690498352,0.36775803566,1,s,238.012089014,,,,,,,,,,,,,,,,,,,,,,,,,,,,,,,,2015_Jun_18_1102,60.1511557535,LearningTask,1,22,
-200,a,-200,,,,,,,,,,,,,,,,,0,0,0,0,4,1,17,3,,,,,,,,,,,,,,,,,,,,,,,,,,,,,a,1,0.401012897491,None,0,0.5,invertedtrianglegreen.gif,stop,,,,,,,,,,,,,,,,,,,,,,,,0.63,0.513841152191,0.000899076461792,0.401012897491,1,a,241.015307903,,,,,,,,,,,,,,,,,,,,,,,,,,,,,,,,2015_Jun_18_1102,60.1511557535,LearningTask,1,22,
-200,q,200,,,,,,,,,,,,,,,,,0,0,0,0,4,2,18,1,,,,,,,,,,,,,,,,,,,,,,,,,,,,,q,1,0.35017490387,None,0,2.0,triangleyellow.gif,go,,,,,,,,,,,,,,,,,,,,,,,,1.91,0.514060974121,0.00089693069458,0.35017490387,1,q,244.018343925,,,,,,,,,,,,,,,,,,,,,,,,,,,,,,,,2015_Jun_18_1102,60.1511557535,LearningTask,1,22,
200,w,200,,,,,,,,,,,,,,,,,0,0,0,0,4,3,19,0,,,,,,,,,,,,,,,,,,,,,,,,,,,,,w,1,0.384845018387,None,0,2.0,lineblue.gif,stop,,,,,,,,,,,,,,,,,,,,,,,,2.07,0.514093875885,0.00111293792725,0.384845018387,1,w,247.021708965,,,,,,,,,,,,,,,,,,,,,,,,,,,,,,,,2015_Jun_18_1102,60.1511557535,LearningTask,1,22,
200,w,200,,,,,,,,,,,,,,,,,0,0,0,0,5,0,20,0,,,,,,,,,,,,,,,,,,,,,,,,,,,,,w,1,0.367452859879,None,0,0.5,hexagonmagenta.gif,go,,,,,,,,,,,,,,,,,,,,,,,,0.74,0.514357089996,0.000895977020264,0.367452859879,1,w,250.025182009,,,,,,,,,,,,,,,,,,,,,,,,,,,,,,,,2015_Jun_18_1102,60.1511557535,LearningTask,1,22,
200,w,200,,,,,,,,,,,,,,,,,0,0,0,0,5,1,21,0,,,,,,,,,,,,,,,,,,,,,,,,,,,,,w,1,0.350682020187,None,0,2.0,triangleyellow.gif,go,,,,,,,,,,,,,,,,,,,,,,,,1.91,0.514219999313,0.00089693069458,0.350682020187,1,w,253.028425932,,,,,,,,,,,,,,,,,,,,,,,,,,,,,,,,2015_Jun_18_1102,60.1511557535,LearningTask,1,22,
200,s,-200,,,,,,,,,,,,,,,,,0,0,0,0,5,2,22,2,,,,,,,,,,,,,,,,,,,,,,,,,,,,,s,1,0.434676885605,None,0,2.0,lineblue.gif,stop,,,,,,,,,,,,,,,,,,,,,,,,0,0.513866901398,0.000936985015869,0.434676885605,1,s,256.031726837,,,,,,,,,,,,,,,,,,,,,,,,,,,,,,,,2015_Jun_18_1102,60.1511557535,LearningTask,1,22,
-200,a,-200,,,,,,,,,,,,,,,,,0,0,0,0,5,3,23,3,,,,,,,,,,,,,,,,,,,,,,,,,,,,,a,1,0.350897073746,None,0,2.0,triangleyellow.gif,go,,,,,,,,,,,,,,,,,,,,,,,,1.76,0.51441693306,0.000890016555786,0.350897073746,1,a,259.035122871,,,,,,,,,,,,,,,,,,,,,,,,,,,,,,,,2015_Jun_18_1102,60.1511557535,LearningTask,1,22,
-200,a,-200,,,,,,,,,,,,,,,,,0,0,0,0,6,0,24,3,,,,,,,,,,,,,,,,,,,,,,,,,,,,,a,1,0.367434024811,None,0,4.0,diamondcyan.gif,stop,,,,,,,,,,,,,,,,,,,,,,,,4.09,0.514349937439,0.000888824462891,0.367434024811,1,a,262.038614988,,,,,,,,,,,,,,,,,,,,,,,,,,,,,,,,2015_Jun_18_1102,60.1511557535,LearningTask,1,22,
-200,q,200,,,,,,,,,,,,,,,,,0,0,0,0,6,1,25,1,,,,,,,,,,,,,,,,,,,,,,,,,,,,,q,1,0.35098195076,None,0,0.5,hexagonmagenta.gif,go,,,,,,,,,,,,,,,,,,,,,,,,0,0.514074087143,0.000948905944824,0.35098195076,1,q,265.042076826,,,,,,,,,,,,,,,,,,,,,,,,,,,,,,,,2015_Jun_18_1102,60.1511557535,LearningTask,1,22,
200,s,-200,,,,,,,,,,,,,,,,,0,0,0,0,6,2,26,2,,,,,,,,,,,,,,,,,,,,,,,,,,,,,s,1,0.367596149445,None,0,2.0,triangleyellow.gif,go,,,,,,,,,,,,,,,,,,,,,,,,2.24,0.514090776443,0.000894784927368,0.367596149445,1,s,268.04557395,,,,,,,,,,,,,,,,,,,,,,,,,,,,,,,,2015_Jun_18_1102,60.1511557535,LearningTask,1,22,
200,s,-200,,,,,,,,,,,,,,,,,0,0,0,0,6,3,27,2,,,,,,,,,,,,,,,,,,,,,,,,,,,,,s,1,0.40106010437,None,0,2.0,lineblue.gif,stop,,,,,,,,,,,,,,,,,,,,,,,,1.76,0.513886928558,0.00118899345398,0.40106010437,1,s,271.04875493,,,,,,,,,,,,,,,,,,,,,,,,,,,,,,,,2015_Jun_18_1102,60.1511557535,LearningTask,1,22,
-200,q,200,,,,,,,,,,,,,,,,,0,0,0,0,7,0,28,1,,,,,,,,,,,,,,,,,,,,,,,,,,,,,q,1,0.384579896927,None,0,0.5,hexagonmagenta.gif,go,,,,,,,,,,,,,,,,,,,,,,,,0.5,0.513892173767,0.00092601776123,0.384579896927,1,q,274.051986933,,,,,,,,,,,,,,,,,,,,,,,,,,,,,,,,2015_Jun_18_1102,60.1511557535,LearningTask,1,22,
200,w,200,,,,,,,,,,,,,,,,,0,0,0,0,7,1,29,0,,,,,,,,,,,,,,,,,,,,,,,,,,,,,w,1,0.350744962692,None,0,1.0,crossgray.gif,stop,,,,,,,,,,,,,,,,,,,,,,,,1.03,0.514211893082,0.00091290473938,0.350744962692,1,w,277.055351973,,,,,,,,,,,,,,,,,,,,,,,,,,,,,,,,2015_Jun_18_1102,60.1511557535,LearningTask,1,22,
-200,q,200,,,,,,,,,,,,,,,,,0,0,0,0,7,2,30,1,,,,,,,,,,,,,,,,,,,,,,,,,,,,,q,1,0.401062011719,None,0,1.0,circlewhite.gif,go,,,,,,,,,,,,,,,,,,,,,,,,1.05,0.514374017715,0.000904083251953,0.401062011719,1,q,280.058805943,,,,,,,,,,,,,,,,,,,,,,,,,,,,,,,,2015_Jun_18_1102,60.1511557535,LearningTask,1,22,
-200,a,-200,,,,,,,,,,,,,,,,,0,0,0,0,7,3,31,3,,,,,,,,,,,,,,,,,,,,,,,,,,,,,a,1,0.383543014526,None,0,2.0,triangleyellow.gif,go,,,,,,,,,,,,,,,,,,,,,,,,1.89,0.514312028885,0.000900030136108,0.383543014526,1,a,283.061918974,,,,,,,,,,,,,,,,,,,,,,,,,,,,,,,,2015_Jun_18_1102,60.1511557535,LearningTask,1,22,
200,w,200,,,,,,,,,,,,,,,,,0,0,0,0,8,0,32,0,,,,,,,,,,,,,,,,,,,,,,,,,,,,,w,1,0.417531967163,None,0,0.5,hexagonmagenta.gif,go,,,,,,,,,,,,,,,,,,,,,,,,0.48,0.514339923859,0.000916004180908,0.417531967163,1,w,286.065627813,,,,,,,,,,,,,,,,,,,,,,,,,,,,,,,,2015_Jun_18_1102,60.1511557535,LearningTask,1,22,
-200,q,200,,,,,,,,,,,,,,,,,0,0,0,0,8,1,33,1,,,,,,,,,,,,,,,,,,,,,,,,,,,,,q,1,0.401179075241,None,0,0.5,invertedtrianglegreen.gif,stop,,,,,,,,,,,,,,,,,,,,,,,,0,0.513844013214,0.00089693069458,0.401179075241,1,q,289.068723917,,,,,,,,,,,,,,,,,,,,,,,,,,,,,,,,2015_Jun_18_1102,60.1511557535,LearningTask,1,22,
-200,q,200,,,,,,,,,,,,,,,,,0,0,0,0,8,2,34,1,,,,,,,,,,,,,,,,,,,,,,,,,,,,,q,1,0.367303133011,None,0,0.5,invertedtrianglegreen.gif,stop,,,,,,,,,,,,,,,,,,,,,,,,0,0.514214038849,0.000899076461792,0.367303133011,1,q,292.071968794,,,,,,,,,,,,,,,,,,,,,,,,,,,,,,,,2015_Jun_18_1102,60.1511557535,LearningTask,1,22,
-200,a,-200,,,,,,,,,,,,,,,,,0,0,0,0,8,3,35,3,,,,,,,,,,,,,,,,,,,,,,,,,,,,,a,1,0.417301177979,None,0,1.0,crossgray.gif,stop,,,,,,,,,,,,,,,,,,,,,,,,0,0.51432299614,0.000977039337158,0.417301177979,1,a,295.0753479,,,,,,,,,,,,,,,,,,,,,,,,,,,,,,,,2015_Jun_18_1102,60.1511557535,LearningTask,1,22,
-200,a,-200,,,,,,,,,,,,,,,,,0,0,0,0,9,0,36,3,,,,,,,,,,,,,,,,,,,,,,,,,,,,,a,1,0.367594003677,None,0,1.0,crossgray.gif,stop,,,,,,,,,,,,,,,,,,,,,,,,1.13,0.514379024506,0.000887155532837,0.367594003677,1,a,298.078891993,,,,,,,,,,,,,,,,,,,,,,,,,,,,,,,,2015_Jun_18_1102,60.1511557535,LearningTask,1,22,
200,s,-200,,,,,,,,,,,,,,,,,0,0,0,0,9,1,37,2,,,,,,,,,,,,,,,,,,,,,,,,,,,,,s,1,0.401190042496,None,0,2.0,lineblue.gif,stop,,,,,,,,,,,,,,,,,,,,,,,,1.9,0.514163017273,0.000907897949219,0.401190042496,1,s,301.082500935,,,,,,,,,,,,,,,,,,,,,,,,,,,,,,,,2015_Jun_18_1102,60.1511557535,LearningTask,1,22,
-200,q,200,,,,,,,,,,,,,,,,,0,0,0,0,9,2,38,1,,,,,,,,,,,,,,,,,,,,,,,,,,,,,q,1,0.334700107574,None,0,2.0,triangleyellow.gif,go,,,,,,,,,,,,,,,,,,,,,,,,2.02,0.513468980789,0.00095796585083,0.334700107574,1,q,304.085405827,,,,,,,,,,,,,,,,,,,,,,,,,,,,,,,,2015_Jun_18_1102,60.1511557535,LearningTask,1,22,
200,w,200,,,,,,,,,,,,,,,,,0,0,0,0,9,3,39,0,,,,,,,,,,,,,,,,,,,,,,,,,,,,,w,1,0.31732416153,None,0,1.0,circlewhite.gif,go,,,,,,,,,,,,,,,,,,,,,,,,0.76,0.514479875565,0.000891923904419,0.31732416153,1,w,307.088892937,,,,,,,,,,,,,,,,,,,,,,,,,,,,,,,,2015_Jun_18_1102,60.1511557535,LearningTask,1,22,
-200,a,-200,,,,,,,,,,,,,,,,,0,0,0,0,10,0,40,3,,,,,,,,,,,,,,,,,,,,,,,,,,,,,a,1,0.384572982788,None,0,0.5,invertedtrianglegreen.gif,stop,,,,,,,,,,,,,,,,,,,,,,,,0,0.514045953751,0.000904083251953,0.384572982788,1,a,310.092468977,,,,,,,,,,,,,,,,,,,,,,,,,,,,,,,,2015_Jun_18_1102,60.1511557535,LearningTask,1,22,
200,s,-200,,,,,,,,,,,,,,,,,0,0,0,0,10,1,41,2,,,,,,,,,,,,,,,,,,,,,,,,,,,,,s,1,0.384256124496,None,0,4.0,squareorange.gif,go,,,,,,,,,,,,,,,,,,,,,,,,4.07,0.513894081116,0.000931978225708,0.384256124496,1,s,313.09572196,,,,,,,,,,,,,,,,,,,,,,,,,,,,,,,,2015_Jun_18_1102,60.1511557535,LearningTask,1,22,
200,s,-200,,,,,,,,,,,,,,,,,0,0,0,0,10,2,42,2,,,,,,,,,,,,,,,,,,,,,,,,,,,,,s,1,0.434201002121,None,0,2.0,triangleyellow.gif,go,,,,,,,,,,,,,,,,,,,,,,,,2.04,0.514178991318,0.000894069671631,0.434201002121,1,s,316.099031925,,,,,,,,,,,,,,,,,,,,,,,,,,,,,,,,2015_Jun_18_1102,60.1511557535,LearningTask,1,22,
200,s,-200,,,,,,,,,,,,,,,,,0,0,0,0,10,3,43,2,,,,,,,,,,,,,,,,,,,,,,,,,,,,,s,1,0.450982093811,None,0,0.5,invertedtrianglegreen.gif,stop,,,,,,,,,,,,,,,,,,,,,,,,0.54,0.514106988907,0.000895023345947,0.450982093811,1,s,319.102585793,,,,,,,,,,,,,,,,,,,,,,,,,,,,,,,,2015_Jun_18_1102,60.1511557535,LearningTask,1,22,
200,w,200,,,,,,,,,,,,,,,,,0,0,0,0,11,0,44,0,,,,,,,,,,,,,,,,,,,,,,,,,,,,,w,1,0.334128856659,None,0,1.0,circlewhite.gif,go,,,,,,,,,,,,,,,,,,,,,,,,0,0.513711929321,0.000916957855225,0.334128856659,1,w,322.105601788,,,,,,,,,,,,,,,,,,,,,,,,,,,,,,,,2015_Jun_18_1102,60.1511557535,LearningTask,1,22,
200,s,-200,,,,,,,,,,,,,,,,,0,0,0,0,11,1,45,2,,,,,,,,,,,,,,,,,,,,,,,,,,,,,s,1,0.401051998138,None,0,0.5,hexagonmagenta.gif,go,,,,,,,,,,,,,,,,,,,,,,,,0.42,0.514373064041,0.000904083251953,0.401051998138,1,s,325.109353781,,,,,,,,,,,,,,,,,,,,,,,,,,,,,,,,2015_Jun_18_1102,60.1511557535,LearningTask,1,22,
200,s,-200,,,,,,,,,,,,,,,,,0,0,0,0,11,2,46,2,,,,,,,,,,,,,,,,,,,,,,,,,,,,,s,1,0.38401889801,None,0,0.5,invertedtrianglegreen.gif,stop,,,,,,,,,,,,,,,,,,,,,,,,0.66,0.513995885849,0.000921010971069,0.38401889801,1,s,328.112469912,,,,,,,,,,,,,,,,,,,,,,,,,,,,,,,,2015_Jun_18_1102,60.1511557535,LearningTask,1,22,
200,w,200,,,,,,,,,,,,,,,,,0,0,0,0,11,3,47,0,,,,,,,,,,,,,,,,,,,,,,,,,,,,,w,1,0.317787885666,None,0,0.5,hexagonmagenta.gif,go,,,,,,,,,,,,,,,,,,,,,,,,0.63,0.513867855072,0.00113487243652,0.317787885666,1,w,331.115715981,,,,,,,,,,,,,,,,,,,,,,,,,,,,,,,,2015_Jun_18_1102,60.1511557535,LearningTask,1,22,
-200,q,200,,,,,,,,,,,,,,,,,0,0,0,0,12,0,48,1,,,,,,,,,,,,,,,,,,,,,,,,,,,,,q,1,0.367439985275,None,0,0.5,hexagonmagenta.gif,go,,,,,,,,,,,,,,,,,,,,,,,,0.44,0.514281988144,0.0011088848114,0.367439985275,1,q,334.119009972,,,,,,,,,,,,,,,,,,,,,,,,,,,,,,,,2015_Jun_18_1102,60.1511557535,LearningTask,1,22,
200,s,-200,,,,,,,,,,,,,,,,,0,0,0,0,12,1,49,2,,,,,,,,,,,,,,,,,,,,,,,,,,,,,s,1,0.367702007294,None,0,1.0,crossgray.gif,stop,,,,,,,,,,,,,,,,,,,,,,,,0,0.514266014099,0.000895023345947,0.367702007294,1,s,337.122426987,,,,,,,,,,,,,,,,,,,,,,,,,,,,,,,,2015_Jun_18_1102,60.1511557535,LearningTask,1,22,
-200,a,-200,,,,,,,,,,,,,,,,,0,0,0,0,12,2,50,3,,,,,,,,,,,,,,,,,,,,,,,,,,,,,a,1,0.384582042694,None,0,1.0,crossgray.gif,stop,,,,,,,,,,,,,,,,,,,,,,,,1.0,0.514091014862,0.000897884368896,0.384582042694,1,a,340.125724792,,,,,,,,,,,,,,,,,,,,,,,,,,,,,,,,2015_Jun_18_1102,60.1511557535,LearningTask,1,22,
200,s,-200,,,,,,,,,,,,,,,,,0,0,0,0,12,3,51,2,,,,,,,,,,,,,,,,,,,,,,,,,,,,,s,1,0.384111881256,None,0,0.5,invertedtrianglegreen.gif,stop,,,,,,,,,,,,,,,,,,,,,,,,0.74,0.514104127884,0.00101804733276,0.384111881256,1,s,343.129056931,,,,,,,,,,,,,,,,,,,,,,,,,,,,,,,,2015_Jun_18_1102,60.1511557535,LearningTask,1,22,
-200,q,200,,,,,,,,,,,,,,,,,0,0,0,0,13,0,52,1,,,,,,,,,,,,,,,,,,,,,,,,,,,,,q,1,0.334097146988,None,0,0.5,hexagonmagenta.gif,go,,,,,,,,,,,,,,,,,,,,,,,,0.53,0.514524936676,0.000916004180908,0.334097146988,1,q,346.132545948,,,,,,,,,,,,,,,,,,,,,,,,,,,,,,,,2015_Jun_18_1102,60.1511557535,LearningTask,1,22,
-200,a,-200,,,,,,,,,,,,,,,,,0,0,0,0,13,1,53,3,,,,,,,,,,,,,,,,,,,,,,,,,,,,,a,1,0.367479801178,None,0,4.0,squareorange.gif,go,,,,,,,,,,,,,,,,,,,,,,,,4.0,0.514164209366,0.00090217590332,0.367479801178,1,a,349.136268854,,,,,,,,,,,,,,,,,,,,,,,,,,,,,,,,2015_Jun_18_1102,60.1511557535,LearningTask,1,22,
200,w,200,,,,,,,,,,,,,,,,,0,0,0,0,13,2,54,0,,,,,,,,,,,,,,,,,,,,,,,,,,,,,w,1,0.384487867355,None,0,1.0,crossgray.gif,stop,,,,,,,,,,,,,,,,,,,,,,,,0,0.513387203217,0.000980138778687,0.384487867355,1,w,352.139179945,,,,,,,,,,,,,,,,,,,,,,,,,,,,,,,,2015_Jun_18_1102,60.1511557535,LearningTask,1,22,
-200,a,-200,,,,,,,,,,,,,,,,,0,0,0,0,13,3,55,3,,,,,,,,,,,,,,,,,,,,,,,,,,,,,a,1,0.367748022079,None,0,1.0,crossgray.gif,stop,,,,,,,,,,,,,,,,,,,,,,,,1.11,0.514345169067,0.000900030136108,0.367748022079,1,a,355.142507792,,,,,,,,,,,,,,,,,,,,,,,,,,,,,,,,2015_Jun_18_1102,60.1511557535,LearningTask,1,22,
200,w,200,,,,,,,,,,,,,,,,,0,0,0,0,14,0,56,0,,,,,,,,,,,,,,,,,,,,,,,,,,,,,w,1,0.350916147232,None,0,4.0,squareorange.gif,go,,,,,,,,,,,,,,,,,,,,,,,,4.24,0.51435303688,0.000884056091309,0.350916147232,1,w,358.145896912,,,,,,,,,,,,,,,,,,,,,,,,,,,,,,,,2015_Jun_18_1102,60.1511557535,LearningTask,1,22,
200,s,-200,,,,,,,,,,,,,,,,,0,0,0,0,14,1,57,2,,,,,,,,,,,,,,,,,,,,,,,,,,,,,s,1,0.384191989899,None,0,0.5,hexagonmagenta.gif,go,,,,,,,,,,,,,,,,,,,,,,,,0.43,0.513783931732,0.000978946685791,0.384191989899,1,s,361.149454832,,,,,,,,,,,,,,,,,,,,,,,,,,,,,,,,2015_Jun_18_1102,60.1511557535,LearningTask,1,22,
-200,a,-200,,,,,,,,,,,,,,,,,0,0,0,0,14,2,58,3,,,,,,,,,,,,,,,,,,,,,,,,,,,,,a,1,0.351490974426,None,0,0.5,invertedtrianglegreen.gif,stop,,,,,,,,,,,,,,,,,,,,,,,,0,0.51402592659,0.000891923904419,0.351490974426,1,a,364.152444839,,,,,,,,,,,,,,,,,,,,,,,,,,,,,,,,2015_Jun_18_1102,60.1511557535,LearningTask,1,22,
-200,q,200,,,,,,,,,,,,,,,,,0,0,0,0,14,3,59,1,,,,,,,,,,,,,,,,,,,,,,,,,,,,,q,1,0.384518861771,None,0,0.5,hexagonmagenta.gif,go,,,,,,,,,,,,,,,,,,,,,,,,0.41,0.514401912689,0.000886917114258,0.384518861771,1,q,367.156685829,,,,,,,,,,,,,,,,,,,,,,,,,,,,,,,,2015_Jun_18_1102,60.1511557535,LearningTask,1,22,
-200,a,-200,,,,,,,,,,,,,,,,,0,0,0,0,15,0,60,3,,,,,,,,,,,,,,,,,,,,,,,,,,,,,a,1,0.400810003281,None,0,1.0,circlewhite.gif,go,,,,,,,,,,,,,,,,,,,,,,,,1.14,0.513484954834,0.000899076461792,0.400810003281,1,a,370.159291983,,,,,,,,,,,,,,,,,,,,,,,,,,,,,,,,2015_Jun_18_1102,60.1511557535,LearningTask,1,22,
-200,q,200,,,,,,,,,,,,,,,,,0,0,0,0,15,1,61,1,,,,,,,,,,,,,,,,,,,,,,,,,,,,,q,1,0.40077495575,None,0,2.0,triangleyellow.gif,go,,,,,,,,,,,,,,,,,,,,,,,,2.22,0.514331102371,0.000895023345947,0.40077495575,1,q,373.162791014,,,,,,,,,,,,,,,,,,,,,,,,,,,,,,,,2015_Jun_18_1102,60.1511557535,LearningTask,1,22,
200,w,200,,,,,,,,,,,,,,,,,0,0,0,0,15,2,62,0,,,,,,,,,,,,,,,,,,,,,,,,,,,,,w,1,0.40120100975,None,0,2.0,triangleyellow.gif,go,,,,,,,,,,,,,,,,,,,,,,,,2.03,0.5141518116,0.000892877578735,0.40120100975,1,w,376.16610384,,,,,,,,,,,,,,,,,,,,,,,,,,,,,,,,2015_Jun_18_1102,60.1511557535,LearningTask,1,22,
-200,q,200,,,,,,,,,,,,,,,,,0,0,0,0,15,3,63,1,,,,,,,,,,,,,,,,,,,,,,,,,,,,,q,1,0.383894920349,None,0,1.0,circlewhite.gif,go,,,,,,,,,,,,,,,,,,,,,,,,1.01,0.514398813248,0.000899791717529,0.383894920349,1,q,379.169739008,,,,,,,,,,,,,,,,,,,,,,,,,,,,,,,,2015_Jun_18_1102,60.1511557535,LearningTask,1,22,
200,s,-200,,,,,,,,,,,,,,,,,0,0,0,0,16,0,64,2,,,,,,,,,,,,,,,,,,,,,,,,,,,,,s,1,0.400994062424,None,0,1.0,crossgray.gif,stop,,,,,,,,,,,,,,,,,,,,,,,,0,0.513923168182,0.0012891292572,0.400994062424,1,s,382.172805786,,,,,,,,,,,,,,,,,,,,,,,,,,,,,,,,2015_Jun_18_1102,60.1511557535,LearningTask,1,22,
200,s,-200,,,,,,,,,,,,,,,,,0,0,0,0,16,1,65,2,,,,,,,,,,,,,,,,,,,,,,,,,,,,,s,1,0.38455414772,None,0,2.0,triangleyellow.gif,go,,,,,,,,,,,,,,,,,,,,,,,,2.08,0.514287948608,0.000892877578735,0.38455414772,1,s,385.176054001,,,,,,,,,,,,,,,,,,,,,,,,,,,,,,,,2015_Jun_18_1102,60.1511557535,LearningTask,1,22,
200,w,200,,,,,,,,,,,,,,,,,0,0,0,0,16,2,66,0,,,,,,,,,,,,,,,,,,,,,,,,,,,,,w,1,0.384344100952,None,0,0.5,invertedtrianglegreen.gif,stop,,,,,,,,,,,,,,,,,,,,,,,,0.46,0.514250040054,0.000894069671631,0.384344100952,1,w,388.179358006,,,,,,,,,,,,,,,,,,,,,,,,,,,,,,,,2015_Jun_18_1102,60.1511557535,LearningTask,1,22,
200,s,-200,,,,,,,,,,,,,,,,,0,0,0,0,16,3,67,2,,,,,,,,,,,,,,,,,,,,,,,,,,,,,s,1,0.417676210403,None,0,1.0,circlewhite.gif,go,,,,,,,,,,,,,,,,,,,,,,,,1.11,0.514439821243,0.000979900360107,0.417676210403,1,s,391.182906866,,,,,,,,,,,,,,,,,,,,,,,,,,,,,,,,2015_Jun_18_1102,60.1511557535,LearningTask,1,22,
-200,a,-200,,,,,,,,,,,,,,,,,0,0,0,0,17,0,68,3,,,,,,,,,,,,,,,,,,,,,,,,,,,,,a,1,0.4508228302,None,0,1.0,crossgray.gif,stop,,,,,,,,,,,,,,,,,,,,,,,,1.23,0.514290809631,0.000898838043213,0.4508228302,1,a,394.18629384,,,,,,,,,,,,,,,,,,,,,,,,,,,,,,,,2015_Jun_18_1102,60.1511557535,LearningTask,1,22,
200,w,200,,,,,,,,,,,,,,,,,0,0,0,0,17,1,69,0,,,,,,,,,,,,,,,,,,,,,,,,,,,,,w,1,0.367539167404,None,0,1.0,crossgray.gif,stop,,,,,,,,,,,,,,,,,,,,,,,,0.91,0.514086961746,0.00089693069458,0.367539167404,1,w,397.189347982,,,,,,,,,,,,,,,,,,,,,,,,,,,,,,,,2015_Jun_18_1102,60.1511557535,LearningTask,1,22,
200,s,-200,,,,,,,,,,,,,,,,,0,0,0,0,17,2,70,2,,,,,,,,,,,,,,,,,,,,,,,,,,,,,s,1,0.384490013123,None,0,0.5,invertedtrianglegreen.gif,stop,,,,,,,,,,,,,,,,,,,,,,,,0.54,0.514019966125,0.00094199180603,0.384490013123,1,s,400.192783833,,,,,,,,,,,,,,,,,,,,,,,,,,,,,,,,2015_Jun_18_1102,60.1511557535,LearningTask,1,22,
200,w,200,,,,,,,,,,,,,,,,,0,0,0,0,17,3,71,0,,,,,,,,,,,,,,,,,,,,,,,,,,,,,w,1,0.317455053329,None,0,0.5,hexagonmagenta.gif,go,,,,,,,,,,,,,,,,,,,,,,,,0.73,0.514410972595,0.000886917114258,0.317455053329,1,w,403.196391821,,,,,,,,,,,,,,,,,,,,,,,,,,,,,,,,2015_Jun_18_1102,60.1511557535,LearningTask,1,22,
200,s,-200,,,,,,,,,,,,,,,,,0,0,0,0,18,0,72,2,,,,,,,,,,,,,,,,,,,,,,,,,,,,,s,1,0.351119995117,None,0,2.0,triangleyellow.gif,go,,,,,,,,,,,,,,,,,,,,,,,,1.98,0.514153957367,0.000890016555786,0.351119995117,1,s,406.199754,,,,,,,,,,,,,,,,,,,,,,,,,,,,,,,,2015_Jun_18_1102,60.1511557535,LearningTask,1,22,
-200,a,-200,,,,,,,,,,,,,,,,,0,0,0,0,18,1,73,3,,,,,,,,,,,,,,,,,,,,,,,,,,,,,a,1,0.433964014053,None,0,4.0,squareorange.gif,go,,,,,,,,,,,,,,,,,,,,,,,,3.87,0.514027833939,0.000945806503296,0.433964014053,1,a,409.203044891,,,,,,,,,,,,,,,,,,,,,,,,,,,,,,,,2015_Jun_18_1102,60.1511557535,LearningTask,1,22,
200,w,200,,,,,,,,,,,,,,,,,0,0,0,0,18,2,74,0,,,,,,,,,,,,,,,,,,,,,,,,,,,,,w,1,0.36739397049,None,0,4.0,diamondcyan.gif,stop,,,,,,,,,,,,,,,,,,,,,,,,4.17,0.514156103134,0.000891208648682,0.36739397049,1,w,412.206221819,,,,,,,,,,,,,,,,,,,,,,,,,,,,,,,,2015_Jun_18_1102,60.1511557535,LearningTask,1,22,
200,s,-200,,,,,,,,,,,,,,,,,0,0,0,0,18,3,75,2,,,,,,,,,,,,,,,,,,,,,,,,,,,,,s,1,0.350802898407,None,0,4.0,diamondcyan.gif,stop,,,,,,,,,,,,,,,,,,,,,,,,3.84,0.514408111572,0.000894069671631,0.350802898407,1,s,415.209986925,,,,,,,,,,,,,,,,,,,,,,,,,,,,,,,,2015_Jun_18_1102,60.1511557535,LearningTask,1,22,
-200,a,-200,,,,,,,,,,,,,,,,,0,0,0,0,19,0,76,3,,,,,,,,,,,,,,,,,,,,,,,,,,,,,a,1,0.350904941559,None,0,1.0,crossgray.gif,stop,,,,,,,,,,,,,,,,,,,,,,,,0.89,0.513782978058,0.000916957855225,0.350904941559,1,a,418.212929964,,,,,,,,,,,,,,,,,,,,,,,,,,,,,,,,2015_Jun_18_1102,60.1511557535,LearningTask,1,22,
-200,q,200,,,,,,,,,,,,,,,,,0,0,0,0,19,1,77,1,,,,,,,,,,,,,,,,,,,,,,,,,,,,,q,1,0.400774002075,None,0,0.5,invertedtrianglegreen.gif,stop,,,,,,,,,,,,,,,,,,,,,,,,0.56,0.514410018921,0.000897884368896,0.400774002075,1,q,421.216280937,,,,,,,,,,,,,,,,,,,,,,,,,,,,,,,,2015_Jun_18_1102,60.1511557535,LearningTask,1,22,
200,s,-200,,,,,,,,,,,,,,,,,0,0,0,0,19,2,78,2,,,,,,,,,,,,,,,,,,,,,,,,,,,,,s,1,0.367382764816,None,0,2.0,lineblue.gif,stop,,,,,,,,,,,,,,,,,,,,,,,,1.92,0.51442193985,0.000941038131714,0.367382764816,1,s,424.21969986,,,,,,,,,,,,,,,,,,,,,,,,,,,,,,,,2015_Jun_18_1102,60.1511557535,LearningTask,1,22,
-200,q,200,,,,,,,,,,,,,,,,,0,0,0,0,19,3,79,1,,,,,,,,,,,,,,,,,,,,,,,,,,,,,q,1,0.401077032089,None,0,4.0,squareorange.gif,go,,,,,,,,,,,,,,,,,,,,,,,,4.23,0.514178037643,0.000897169113159,0.401077032089,1,q,427.222974777,,,,,,,,,,,,,,,,,,,,,,,,,,,,,,,,2015_Jun_18_1102,60.1511557535,LearningTask,1,22,
-200,a,-200,,,,,,,,,,,,,,,,,0,0,0,0,20,0,80,3,,,,,,,,,,,,,,,,,,,,,,,,,,,,,a,1,0.301064014435,None,0,4.0,diamondcyan.gif,stop,,,,,,,,,,,,,,,,,,,,,,,,4.08,0.514454126358,0.00090217590332,0.301064014435,1,a,430.226879835,,,,,,,,,,,,,,,,,,,,,,,,,,,,,,,,2015_Jun_18_1102,60.1511557535,LearningTask,1,22,
-200,a,-200,,,,,,,,,,,,,,,,,0,0,0,0,20,1,81,3,,,,,,,,,,,,,,,,,,,,,,,,,,,,,a,1,0.367316007614,None,0,4.0,squareorange.gif,go,,,,,,,,,,,,,,,,,,,,,,,,4.24,0.513715982437,0.000910043716431,0.367316007614,1,a,433.229873896,,,,,,,,,,,,,,,,,,,,,,,,,,,,,,,,2015_Jun_18_1102,60.1511557535,LearningTask,1,22,
-200,q,200,,,,,,,,,,,,,,,,,0,0,0,0,20,2,82,1,,,,,,,,,,,,,,,,,,,,,,,,,,,,,q,1,0.350785017014,None,0,1.0,circlewhite.gif,go,,,,,,,,,,,,,,,,,,,,,,,,1.06,0.514019966125,0.000930786132812,0.350785017014,1,q,436.233017921,,,,,,,,,,,,,,,,,,,,,,,,,,,,,,,,2015_Jun_18_1102,60.1511557535,LearningTask,1,22,
200,s,-200,,,,,,,,,,,,,,,,,0,0,0,0,20,3,83,2,,,,,,,,,,,,,,,,,,,,,,,,,,,,,s,1,0.366967916489,None,0,4.0,squareorange.gif,go,,,,,,,,,,,,,,,,,,,,,,,,0,0.514438867569,0.00113105773926,0.366967916489,1,s,439.236454964,,,,,,,,,,,,,,,,,,,,,,,,,,,,,,,,2015_Jun_18_1102,60.1511557535,LearningTask,1,22,
200,s,-200,,,,,,,,,,,,,,,,,0,0,0,0,21,0,84,2,,,,,,,,,,,,,,,,,,,,,,,,,,,,,s,1,0.400671005249,None,0,4.0,squareorange.gif,go,,,,,,,,,,,,,,,,,,,,,,,,4.13,0.514402151108,0.000903129577637,0.400671005249,1,s,442.23998189,,,,,,,,,,,,,,,,,,,,,,,,,,,,,,,,2015_Jun_18_1102,60.1511557535,LearningTask,1,22,
-200,q,200,,,,,,,,,,,,,,,,,0,0,0,0,21,1,85,1,,,,,,,,,,,,,,,,,,,,,,,,,,,,,q,1,0.334192991257,None,0,1.0,circlewhite.gif,go,,,,,,,,,,,,,,,,,,,,,,,,1.17,0.51420879364,0.000903844833374,0.334192991257,1,q,445.243503809,,,,,,,,,,,,,,,,,,,,,,,,,,,,,,,,2015_Jun_18_1102,60.1511557535,LearningTask,1,22,
-200,a,-200,,,,,,,,,,,,,,,,,0,0,0,0,21,2,86,3,,,,,,,,,,,,,,,,,,,,,,,,,,,,,a,1,0.351392030716,None,0,0.5,hexagonmagenta.gif,go,,,,,,,,,,,,,,,,,,,,,,,,0.74,0.513516902924,0.00104093551636,0.351392030716,1,a,448.246573925,,,,,,,,,,,,,,,,,,,,,,,,,,,,,,,,2015_Jun_18_1102,60.1511557535,LearningTask,1,22,
-200,q,200,,,,,,,,,,,,,,,,,0,0,0,0,21,3,87,1,,,,,,,,,,,,,,,,,,,,,,,,,,,,,q,1,0.417604923248,None,0,2.0,triangleyellow.gif,go,,,,,,,,,,,,,,,,,,,,,,,,1.99,0.514101028442,0.000933885574341,0.417604923248,1,q,451.249959946,,,,,,,,,,,,,,,,,,,,,,,,,,,,,,,,2015_Jun_18_1102,60.1511557535,LearningTask,1,22,
200,s,-200,,,,,,,,,,,,,,,,,0,0,0,0,22,0,88,2,,,,,,,,,,,,,,,,,,,,,,,,,,,,,s,1,0.333866834641,None,0,2.0,triangleyellow.gif,go,,,,,,,,,,,,,,,,,,,,,,,,0,0.514400959015,0.000900983810425,0.333866834641,1,s,454.253279924,,,,,,,,,,,,,,,,,,,,,,,,,,,,,,,,2015_Jun_18_1102,60.1511557535,LearningTask,1,22,
-200,q,200,,,,,,,,,,,,,,,,,0,0,0,0,22,1,89,1,,,,,,,,,,,,,,,,,,,,,,,,,,,,,q,1,0.350806951523,None,0,0.5,invertedtrianglegreen.gif,stop,,,,,,,,,,,,,,,,,,,,,,,,0.68,0.513913154602,0.00095009803772,0.350806951523,1,q,457.256690979,,,,,,,,,,,,,,,,,,,,,,,,,,,,,,,,2015_Jun_18_1102,60.1511557535,LearningTask,1,22,
-200,q,200,,,,,,,,,,,,,,,,,0,0,0,0,22,2,90,1,,,,,,,,,,,,,,,,,,,,,,,,,,,,,q,1,0.400858879089,None,0,0.5,invertedtrianglegreen.gif,stop,,,,,,,,,,,,,,,,,,,,,,,,0.71,0.514246940613,0.000895977020264,0.400858879089,1,q,460.259935856,,,,,,,,,,,,,,,,,,,,,,,,,,,,,,,,2015_Jun_18_1102,60.1511557535,LearningTask,1,22,
-200,a,-200,,,,,,,,,,,,,,,,,0,0,0,0,22,3,91,3,,,,,,,,,,,,,,,,,,,,,,,,,,,,,a,1,0.384333848953,None,0,2.0,triangleyellow.gif,go,,,,,,,,,,,,,,,,,,,,,,,,0,0.514280080795,0.000909090042114,0.384333848953,1,a,463.263604879,,,,,,,,,,,,,,,,,,,,,,,,,,,,,,,,2015_Jun_18_1102,60.1511557535,LearningTask,1,22,
200,w,200,,,,,,,,,,,,,,,,,0,0,0,0,23,0,92,0,,,,,,,,,,,,,,,,,,,,,,,,,,,,,w,1,0.401225090027,None,0,4.0,squareorange.gif,go,,,,,,,,,,,,,,,,,,,,,,,,4.05,0.513767957687,0.00090479850769,0.401225090027,1,w,466.266893864,,,,,,,,,,,,,,,,,,,,,,,,,,,,,,,,2015_Jun_18_1102,60.1511557535,LearningTask,1,22,
200,w,200,,,,,,,,,,,,,,,,,0,0,0,0,23,1,93,0,,,,,,,,,,,,,,,,,,,,,,,,,,,,,w,1,0.367522954941,None,0,2.0,triangleyellow.gif,go,,,,,,,,,,,,,,,,,,,,,,,,2.18,0.514002084732,0.000921010971069,0.367522954941,1,w,469.270003796,,,,,,,,,,,,,,,,,,,,,,,,,,,,,,,,2015_Jun_18_1102,60.1511557535,LearningTask,1,22,
200,w,200,,,,,,,,,,,,,,,,,0,0,0,0,23,2,94,0,,,,,,,,,,,,,,,,,,,,,,,,,,,,,w,1,0.367568016052,None,0,1.0,circlewhite.gif,go,,,,,,,,,,,,,,,,,,,,,,,,0.86,0.514377117157,0.000903129577637,0.367568016052,1,w,472.273504972,,,,,,,,,,,,,,,,,,,,,,,,,,,,,,,,2015_Jun_18_1102,60.1511557535,LearningTask,1,22,
-200,q,200,,,,,,,,,,,,,,,,,0,0,0,0,23,3,95,1,,,,,,,,,,,,,,,,,,,,,,,,,,,,,q,1,0.383818149567,None,0,4.0,diamondcyan.gif,stop,,,,,,,,,,,,,,,,,,,,,,,,4.25,0.514474868774,0.00091290473938,0.383818149567,1,q,475.276678801,,,,,,,,,,,,,,,,,,,,,,,,,,,,,,,,2015_Jun_18_1102,60.1511557535,LearningTask,1,22,
-200,a,-200,,,,,,,,,,,,,,,,,0,0,0,0,24,0,96,3,,,,,,,,,,,,,,,,,,,,,,,,,,,,,a,1,0.384100914001,None,0,2.0,triangleyellow.gif,go,,,,,,,,,,,,,,,,,,,,,,,,2.14,0.514516115189,0.00107407569885,0.384100914001,1,a,478.279987812,,,,,,,,,,,,,,,,,,,,,,,,,,,,,,,,2015_Jun_18_1102,60.1511557535,LearningTask,1,22,
-200,q,200,,,,,,,,,,,,,,,,,0,0,0,0,24,1,97,1,,,,,,,,,,,,,,,,,,,,,,,,,,,,,q,1,0.384303092957,None,0,1.0,circlewhite.gif,go,,,,,,,,,,,,,,,,,,,,,,,,1.16,0.514386892319,0.000911951065063,0.384303092957,1,q,481.283483982,,,,,,,,,,,,,,,,,,,,,,,,,,,,,,,,2015_Jun_18_1102,60.1511557535,LearningTask,1,22,
-200,q,200,,,,,,,,,,,,,,,,,0,0,0,0,24,2,98,1,,,,,,,,,,,,,,,,,,,,,,,,,,,,,q,1,0.384525060654,None,0,2.0,triangleyellow.gif,go,,,,,,,,,,,,,,,,,,,,,,,,1.92,0.51429104805,0.000894069671631,0.384525060654,1,q,484.286801815,,,,,,,,,,,,,,,,,,,,,,,,,,,,,,,,2015_Jun_18_1102,60.1511557535,LearningTask,1,22,
200,w,200,,,,,,,,,,,,,,,,,0,0,0,0,24,3,99,0,,,,,,,,,,,,,,,,,,,,,,,,,,,,,w,1,0.350780963898,None,0,0.5,hexagonmagenta.gif,go,,,,,,,,,,,,,,,,,,,,,,,,0.53,0.514222860336,0.000967979431152,0.350780963898,1,w,487.289963007,,,,,,,,,,,,,,,,,,,,,,,,,,,,,,,,2015_Jun_18_1102,60.1511557535,LearningTask,1,22,
,,,,,,,,,,,,,,,,,,,0,0,0,0,,,,,,,,,,,,,,,,,,,,,,,,,,,,,,,,,,,,,,,,,,,,,,,,,,,,,,,,,,,,,,,,,,,,,,,9,35.8498380184,,,,,,,,,,,,,,,,,,,,,,,,,,,,,,2015_Jun_18_1102,60.1511557535,LearningTask,1,22,
200,w,200,,,,,,,,,,,,,,,,,1,0,1,0,0,0,0,0,,,,,,,,,,,,,,,,,,,,,,,,,,,,,w,1,0.584539890289,None,0,2.0,triangleyellow.gif,go,,,,,,,,,,,,,,,,,,,,,,,,1.77,0.509514093399,0.000998973846436,0.584539890289,1,w,526.484476805,,,,,,,,,,,,,,,,,,,,,,,,,,,,,,,,2015_Jun_18_1102,60.1511557535,LearningTask,1,22,
-200,q,200,,,,,,,,,,,,,,,,,1,0,1,0,0,1,1,1,,,,,,,,,,,,,,,,,,,,,,,,,,,,,q,1,0.401237010956,None,0,2.0,triangleyellow.gif,go,,,,,,,,,,,,,,,,,,,,,,,,1.93,0.513657808304,0.000888824462891,0.401237010956,1,q,529.487317801,,,,,,,,,,,,,,,,,,,,,,,,,,,,,,,,2015_Jun_18_1102,60.1511557535,LearningTask,1,22,
-200,q,200,,,,,,,,,,,,,,,,,1,0,1,0,0,2,2,1,,,,,,,,,,,,,,,,,,,,,,,,,,,,,q,1,0.43424487114,None,0,4.0,diamondcyan.gif,stop,,,,,,,,,,,,,,,,,,,,,,,,4.19,0.513847827911,0.00108289718628,0.43424487114,1,q,532.490707874,,,,,,,,,,,,,,,,,,,,,,,,,,,,,,,,2015_Jun_18_1102,60.1511557535,LearningTask,1,22,
-200,q,200,,,,,,,,,,,,,,,,,1,0,1,0,0,3,3,1,,,,,,,,,,,,,,,,,,,,,,,,,,,,,q,1,0.350662946701,None,0,1.0,circlewhite.gif,go,,,,,,,,,,,,,,,,,,,,,,,,1.09,0.514312982559,0.000895977020264,0.350662946701,1,q,535.494174004,,,,,,,,,,,,,,,,,,,,,,,,,,,,,,,,2015_Jun_18_1102,60.1511557535,LearningTask,1,22,
200,s,-200,,,,,,,,,,,,,,,,,1,0,1,0,1,0,4,2,,,,,,,,,,,,,,,,,,,,,,,,,,,,,s,1,0.384541034698,None,0,1.0,circlewhite.gif,go,,,,,,,,,,,,,,,,,,,,,,,,1.23,0.514069080353,0.000901937484741,0.384541034698,1,s,538.497733831,,,,,,,,,,,,,,,,,,,,,,,,,,,,,,,,2015_Jun_18_1102,60.1511557535,LearningTask,1,22,
-200,q,200,,,,,,,,,,,,,,,,,1,0,1,0,1,1,5,1,,,,,,,,,,,,,,,,,,,,,,,,,,,,,q,1,0.401093959808,None,0,2.0,lineblue.gif,stop,,,,,,,,,,,,,,,,,,,,,,,,2.18,0.513422966003,0.00127005577087,0.401093959808,1,q,541.500716925,,,,,,,,,,,,,,,,,,,,,,,,,,,,,,,,2015_Jun_18_1102,60.1511557535,LearningTask,1,22,
200,w,200,,,,,,,,,,,,,,,,,1,0,1,0,1,2,6,0,,,,,,,,,,,,,,,,,,,,,,,,,,,,,w,1,0.467649936676,None,0,2.0,lineblue.gif,stop,,,,,,,,,,,,,,,,,,,,,,,,2.19,0.514299154282,0.000933170318604,0.467649936676,1,w,544.504199982,,,,,,,,,,,,,,,,,,,,,,,,,,,,,,,,2015_Jun_18_1102,60.1511557535,LearningTask,1,22,
-200,q,200,,,,,,,,,,,,,,,,,1,0,1,0,1,3,7,1,,,,,,,,,,,,,,,,,,,,,,,,,,,,,q,1,0.56728219986,None,0,4.0,diamondcyan.gif,stop,,,,,,,,,,,,,,,,,,,,,,,,0,0.51447892189,0.000899076461792,0.56728219986,1,q,547.507791996,,,,,,,,,,,,,,,,,,,,,,,,,,,,,,,,2015_Jun_18_1102,60.1511557535,LearningTask,1,22,
-200,a,-200,,,,,,,,,,,,,,,,,1,0,1,0,2,0,8,3,,,,,,,,,,,,,,,,,,,,,,,,,,,,,a,1,0.384349107742,None,0,1.0,circlewhite.gif,go,,,,,,,,,,,,,,,,,,,,,,,,0.89,0.513685941696,0.000914812088013,0.384349107742,1,a,550.510954857,,,,,,,,,,,,,,,,,,,,,,,,,,,,,,,,2015_Jun_18_1102,60.1511557535,LearningTask,1,22,
-200,a,-200,,,,,,,,,,,,,,,,,1,0,1,0,2,1,9,3,,,,,,,,,,,,,,,,,,,,,,,,,,,,,a,1,0.401128053665,None,0,4.0,diamondcyan.gif,stop,,,,,,,,,,,,,,,,,,,,,,,,4.11,0.513928890228,0.000938892364502,0.401128053665,1,a,553.514074802,,,,,,,,,,,,,,,,,,,,,,,,,,,,,,,,2015_Jun_18_1102,60.1511557535,LearningTask,1,22,
200,w,200,,,,,,,,,,,,,,,,,1,0,1,0,2,2,10,0,,,,,,,,,,,,,,,,,,,,,,,,,,,,,w,1,0.38384103775,None,0,0.5,invertedtrianglegreen.gif,stop,,,,,,,,,,,,,,,,,,,,,,,,0.28,0.514578104019,0.000952005386353,0.38384103775,1,w,556.518823862,,,,,,,,,,,,,,,,,,,,,,,,,,,,,,,,2015_Jun_18_1102,60.1511557535,LearningTask,1,22,
200,s,-200,,,,,,,,,,,,,,,,,1,0,1,0,2,3,11,2,,,,,,,,,,,,,,,,,,,,,,,,,,,,,s,1,0.367510080338,None,0,0.5,hexagonmagenta.gif,go,,,,,,,,,,,,,,,,,,,,,,,,0.53,0.512848138809,0.000913143157959,0.367510080338,1,s,559.520998001,,,,,,,,,,,,,,,,,,,,,,,,,,,,,,,,2015_Jun_18_1102,60.1511557535,LearningTask,1,22,
200,w,200,,,,,,,,,,,,,,,,,1,0,1,0,3,0,12,0,,,,,,,,,,,,,,,,,,,,,,,,,,,,,w,1,0.384182929993,None,0,1.0,crossgray.gif,stop,,,,,,,,,,,,,,,,,,,,,,,,1.06,0.514214038849,0.000962018966675,0.384182929993,1,w,562.524577856,,,,,,,,,,,,,,,,,,,,,,,,,,,,,,,,2015_Jun_18_1102,60.1511557535,LearningTask,1,22,
200,w,200,,,,,,,,,,,,,,,,,1,0,1,0,3,1,13,0,,,,,,,,,,,,,,,,,,,,,,,,,,,,,w,1,0.351089954376,None,0,2.0,lineblue.gif,stop,,,,,,,,,,,,,,,,,,,,,,,,0,0.513989210129,0.000912189483643,0.351089954376,1,w,565.527674913,,,,,,,,,,,,,,,,,,,,,,,,,,,,,,,,2015_Jun_18_1102,60.1511557535,LearningTask,1,22,
200,s,-200,,,,,,,,,,,,,,,,,1,0,1,0,3,2,14,2,,,,,,,,,,,,,,,,,,,,,,,,,,,,,s,1,0.350193023682,None,0,1.0,circlewhite.gif,go,,,,,,,,,,,,,,,,,,,,,,,,1.23,0.51464509964,0.000899076461792,0.350193023682,1,s,568.530958891,,,,,,,,,,,,,,,,,,,,,,,,,,,,,,,,2015_Jun_18_1102,60.1511557535,LearningTask,1,22,
200,s,-200,,,,,,,,,,,,,,,,,1,0,1,0,3,3,15,2,,,,,,,,,,,,,,,,,,,,,,,,,,,,,s,1,0.317628145218,None,0,4.0,squareorange.gif,go,,,,,,,,,,,,,,,,,,,,,,,,3.77,0.514153003693,0.00103998184204,0.317628145218,1,s,571.534320831,,,,,,,,,,,,,,,,,,,,,,,,,,,,,,,,2015_Jun_18_1102,60.1511557535,LearningTask,1,22,
-200,a,-200,,,,,,,,,,,,,,,,,1,0,1,0,4,0,16,3,,,,,,,,,,,,,,,,,,,,,,,,,,,,,a,1,0.33404302597,None,0,0.5,invertedtrianglegreen.gif,stop,,,,,,,,,,,,,,,,,,,,,,,,0,0.514124155045,0.000899076461792,0.33404302597,1,a,574.537744999,,,,,,,,,,,,,,,,,,,,,,,,,,,,,,,,2015_Jun_18_1102,60.1511557535,LearningTask,1,22,
200,s,-200,,,,,,,,,,,,,,,,,1,0,1,0,4,1,17,2,,,,,,,,,,,,,,,,,,,,,,,,,,,,,s,1,0.317333936691,None,0,1.0,crossgray.gif,stop,,,,,,,,,,,,,,,,,,,,,,,,0,0.51435303688,0.00090503692627,0.317333936691,1,s,577.540774822,,,,,,,,,,,,,,,,,,,,,,,,,,,,,,,,2015_Jun_18_1102,60.1511557535,LearningTask,1,22,
-200,q,200,,,,,,,,,,,,,,,,,1,0,1,0,4,2,18,1,,,,,,,,,,,,,,,,,,,,,,,,,,,,,q,1,0.3840239048,None,0,4.0,squareorange.gif,go,,,,,,,,,,,,,,,,,,,,,,,,0,0.51459980011,0.00107598304749,0.3840239048,1,q,580.544487953,,,,,,,,,,,,,,,,,,,,,,,,,,,,,,,,2015_Jun_18_1102,60.1511557535,LearningTask,1,22,
200,s,-200,,,,,,,,,,,,,,,,,1,0,1,0,4,3,19,2,,,,,,,,,,,,,,,,,,,,,,,,,,,,,s,1,0.400567054749,None,0,2.0,lineblue.gif,stop,,,,,,,,,,,,,,,,,,,,,,,,1.99,0.514172077179,0.000890016555786,0.400567054749,1,s,583.547734976,,,,,,,,,,,,,,,,,,,,,,,,,,,,,,,,2015_Jun_18_1102,60.1511557535,LearningTask,1,22,
-200,q,200,,,,,,,,,,,,,,,,,1,0,1,0,5,0,20,1,,,,,,,,,,,,,,,,,,,,,,,,,,,,,q,1,0.367818117142,None,0,1.0,circlewhite.gif,go,,,,,,,,,,,,,,,,,,,,,,,,0.82,0.51439499855,0.00087308883667,0.367818117142,1,q,586.551369905,,,,,,,,,,,,,,,,,,,,,,,,,,,,,,,,2015_Jun_18_1102,60.1511557535,LearningTask,1,22,
-200,a,-200,,,,,,,,,,,,,,,,,1,0,1,0,5,1,21,3,,,,,,,,,,,,,,,,,,,,,,,,,,,,,a,1,0.351071119308,None,0,2.0,lineblue.gif,stop,,,,,,,,,,,,,,,,,,,,,,,,1.86,0.513535022736,0.000916957855225,0.351071119308,1,a,589.554408789,,,,,,,,,,,,,,,,,,,,,,,,,,,,,,,,2015_Jun_18_1102,60.1511557535,LearningTask,1,22,
200,s,-200,,,,,,,,,,,,,,,,,1,0,1,0,5,2,22,2,,,,,,,,,,,,,,,,,,,,,,,,,,,,,s,1,0.333941936493,None,0,4.0,squareorange.gif,go,,,,,,,,,,,,,,,,,,,,,,,,4.13,0.514493942261,0.00087308883667,0.333941936493,1,s,592.557678938,,,,,,,,,,,,,,,,,,,,,,,,,,,,,,,,2015_Jun_18_1102,60.1511557535,LearningTask,1,22,
200,s,-200,,,,,,,,,,,,,,,,,1,0,1,0,5,3,23,2,,,,,,,,,,,,,,,,,,,,,,,,,,,,,s,1,0.350798130035,None,0,4.0,squareorange.gif,go,,,,,,,,,,,,,,,,,,,,,,,,4.19,0.514024972916,0.000904083251953,0.350798130035,1,s,595.561597824,,,,,,,,,,,,,,,,,,,,,,,,,,,,,,,,2015_Jun_18_1102,60.1511557535,LearningTask,1,22,
200,w,200,,,,,,,,,,,,,,,,,1,0,1,0,6,0,24,0,,,,,,,,,,,,,,,,,,,,,,,,,,,,,w,1,0.334039926529,None,0,2.0,triangleyellow.gif,go,,,,,,,,,,,,,,,,,,,,,,,,0,0.513657093048,0.00088906288147,0.334039926529,1,w,598.564427853,,,,,,,,,,,,,,,,,,,,,,,,,,,,,,,,2015_Jun_18_1102,60.1511557535,LearningTask,1,22,
-200,q,200,,,,,,,,,,,,,,,,,1,0,1,0,6,1,25,1,,,,,,,,,,,,,,,,,,,,,,,,,,,,,q,1,0.334613800049,None,0,2.0,triangleyellow.gif,go,,,,,,,,,,,,,,,,,,,,,,,,1.93,0.514406204224,0.000875234603882,0.334613800049,1,q,601.567761898,,,,,,,,,,,,,,,,,,,,,,,,,,,,,,,,2015_Jun_18_1102,60.1511557535,LearningTask,1,22,
200,w,200,,,,,,,,,,,,,,,,,1,0,1,0,6,2,26,0,,,,,,,,,,,,,,,,,,,,,,,,,,,,,w,1,0.300904989243,None,0,0.5,invertedtrianglegreen.gif,stop,,,,,,,,,,,,,,,,,,,,,,,,0,0.514275074005,0.000878095626831,0.300904989243,1,w,604.571519852,,,,,,,,,,,,,,,,,,,,,,,,,,,,,,,,2015_Jun_18_1102,60.1511557535,LearningTask,1,22,
-200,a,-200,,,,,,,,,,,,,,,,,1,0,1,0,6,3,27,3,,,,,,,,,,,,,,,,,,,,,,,,,,,,,a,1,0.334332942963,None,0,4.0,diamondcyan.gif,stop,,,,,,,,,,,,,,,,,,,,,,,,4.25,0.513608932495,0.000902891159058,0.334332942963,1,a,607.574529886,,,,,,,,,,,,,,,,,,,,,,,,,,,,,,,,2015_Jun_18_1102,60.1511557535,LearningTask,1,22,
200,w,200,,,,,,,,,,,,,,,,,1,0,1,0,7,0,28,0,,,,,,,,,,,,,,,,,,,,,,,,,,,,,w,1,0.384083986282,None,0,1.0,crossgray.gif,stop,,,,,,,,,,,,,,,,,,,,,,,,0,0.514529943466,0.000920057296753,0.384083986282,1,w,610.578233957,,,,,,,,,,,,,,,,,,,,,,,,,,,,,,,,2015_Jun_18_1102,60.1511557535,LearningTask,1,22,
-200,q,200,,,,,,,,,,,,,,,,,1,0,1,0,7,1,29,1,,,,,,,,,,,,,,,,,,,,,,,,,,,,,q,1,0.284200906754,None,0,1.0,crossgray.gif,stop,,,,,,,,,,,,,,,,,,,,,,,,1.16,0.514085054398,0.000874042510986,0.284200906754,1,q,613.581383944,,,,,,,,,,,,,,,,,,,,,,,,,,,,,,,,2015_Jun_18_1102,60.1511557535,LearningTask,1,22,
-200,a,-200,,,,,,,,,,,,,,,,,1,0,1,0,7,2,30,3,,,,,,,,,,,,,,,,,,,,,,,,,,,,,a,1,0.384346008301,None,0,2.0,lineblue.gif,stop,,,,,,,,,,,,,,,,,,,,,,,,0,0.514119148254,0.000884056091309,0.384346008301,1,a,616.584634781,,,,,,,,,,,,,,,,,,,,,,,,,,,,,,,,2015_Jun_18_1102,60.1511557535,LearningTask,1,22,
-200,a,-200,,,,,,,,,,,,,,,,,1,0,1,0,7,3,31,3,,,,,,,,,,,,,,,,,,,,,,,,,,,,,a,1,0.317800998688,None,0,4.0,squareorange.gif,go,,,,,,,,,,,,,,,,,,,,,,,,3.83,0.514154911041,0.000966787338257,0.317800998688,1,a,619.587947845,,,,,,,,,,,,,,,,,,,,,,,,,,,,,,,,2015_Jun_18_1102,60.1511557535,LearningTask,1,22,
-200,a,-200,,,,,,,,,,,,,,,,,1,0,1,0,8,0,32,3,,,,,,,,,,,,,,,,,,,,,,,,,,,,,a,1,0.317417144775,None,0,4.0,squareorange.gif,go,,,,,,,,,,,,,,,,,,,,,,,,3.94,0.514508008957,0.000870943069458,0.317417144775,1,a,622.591399908,,,,,,,,,,,,,,,,,,,,,,,,,,,,,,,,2015_Jun_18_1102,60.1511557535,LearningTask,1,22,
200,w,200,,,,,,,,,,,,,,,,,1,0,1,0,8,1,33,0,,,,,,,,,,,,,,,,,,,,,,,,,,,,,w,1,0.367441892624,None,0,1.0,circlewhite.gif,go,,,,,,,,,,,,,,,,,,,,,,,,3.94,0.514341831207,0.000885963439941,0.317883014679,0,s,625.5947299,,,1.16,0.515321969986,0.000975847244263,0.367441892624,1,w,628.598221779,,,,,,,,,,,,,,,,,,,,,,,2015_Jun_18_1102,60.1511557535,LearningTask,1,22,
-200,a,-200,,,,,,,,,,,,,,,,,1,0,1,0,8,2,34,3,,,,,,,,,,,,,,,,,,,,,,,,,,,,,a,1,0.350603103638,None,0,2.0,lineblue.gif,stop,,,,,,,,,,,,,,,,,,,,,,,,0,0.51406288147,0.000874042510986,0.350603103638,1,a,631.601449013,,,,,,,,,,,,,,,,,,,,,,,,,,,,,,,,2015_Jun_18_1102,60.1511557535,LearningTask,1,22,
200,w,200,,,,,,,,,,,,,,,,,1,0,1,0,8,3,35,0,,,,,,,,,,,,,,,,,,,,,,,,,,,,,w,1,0.384287834167,None,0,1.0,crossgray.gif,stop,,,,,,,,,,,,,,,,,,,,,,,,1.14,0.514345884323,0.000875949859619,0.384287834167,1,w,634.604792833,,,,,,,,,,,,,,,,,,,,,,,,,,,,,,,,2015_Jun_18_1102,60.1511557535,LearningTask,1,22,
200,s,-200,,,,,,,,,,,,,,,,,1,0,1,0,9,0,36,2,,,,,,,,,,,,,,,,,,,,,,,,,,,,,s,1,0.400903940201,None,0,2.0,lineblue.gif,stop,,,,,,,,,,,,,,,,,,,,,,,,1.91,0.513833045959,0.000908136367798,0.400903940201,1,s,637.608356953,,,,,,,,,,,,,,,,,,,,,,,,,,,,,,,,2015_Jun_18_1102,60.1511557535,LearningTask,1,22,
200,s,-200,,,,,,,,,,,,,,,,,1,0,1,0,9,1,37,2,,,,,,,,,,,,,,,,,,,,,,,,,,,,,s,1,0.400718927383,None,0,2.0,lineblue.gif,stop,,,,,,,,,,,,,,,,,,,,,,,,0,0.514094114304,0.000875949859619,0.400718927383,1,s,640.611511946,,,,,,,,,,,,,,,,,,,,,,,,,,,,,,,,2015_Jun_18_1102,60.1511557535,LearningTask,1,22,
-200,a,-200,,,,,,,,,,,,,,,,,1,0,1,0,9,2,38,3,,,,,,,,,,,,,,,,,,,,,,,,,,,,,a,1,0.35095000267,None,0,1.0,crossgray.gif,stop,,,,,,,,,,,,,,,,,,,,,,,,1.14,0.514451026917,0.00262093544006,0.35095000267,1,a,643.615080833,,,,,,,,,,,,,,,,,,,,,,,,,,,,,,,,2015_Jun_18_1102,60.1511557535,LearningTask,1,22,
-200,q,200,,,,,,,,,,,,,,,,,1,0,1,0,9,3,39,1,,,,,,,,,,,,,,,,,,,,,,,,,,,,,q,1,0.334167957306,None,0,1.0,crossgray.gif,stop,,,,,,,,,,,,,,,,,,,,,,,,1.06,0.513808012009,0.000892162322998,0.334167957306,1,q,646.618045807,,,,,,,,,,,,,,,,,,,,,,,,,,,,,,,,2015_Jun_18_1102,60.1511557535,LearningTask,1,22,
-200,q,200,,,,,,,,,,,,,,,,,1,0,1,0,10,0,40,1,,,,,,,,,,,,,,,,,,,,,,,,,,,,,q,1,0.367311954498,None,0,1.0,crossgray.gif,stop,,,,,,,,,,,,,,,,,,,,,,,,1.07,0.514499902725,0.000876903533936,0.367311954498,1,q,649.621446848,,,,,,,,,,,,,,,,,,,,,,,,,,,,,,,,2015_Jun_18_1102,60.1511557535,LearningTask,1,22,
-200,a,-200,,,,,,,,,,,,,,,,,1,0,1,0,10,1,41,3,,,,,,,,,,,,,,,,,,,,,,,,,,,,,a,1,0.367748022079,None,0,0.5,invertedtrianglegreen.gif,stop,,,,,,,,,,,,,,,,,,,,,,,,0.29,0.514290094376,0.000878095626831,0.367748022079,1,a,652.625216961,,,,,,,,,,,,,,,,,,,,,,,,,,,,,,,,2015_Jun_18_1102,60.1511557535,LearningTask,1,22,
-200,a,-200,,,,,,,,,,,,,,,,,1,0,1,0,10,2,42,3,,,,,,,,,,,,,,,,,,,,,,,,,,,,,a,1,0.384099960327,None,0,0.5,invertedtrianglegreen.gif,stop,,,,,,,,,,,,,,,,,,,,,,,,0.58,0.513997077942,0.000900030136108,0.384099960327,1,a,655.628456831,,,,,,,,,,,,,,,,,,,,,,,,,,,,,,,,2015_Jun_18_1102,60.1511557535,LearningTask,1,22,
-200,q,200,,,,,,,,,,,,,,,,,1,0,1,0,10,3,43,1,,,,,,,,,,,,,,,,,,,,,,,,,,,,,q,1,0.367448091507,None,0,2.0,lineblue.gif,stop,,,,,,,,,,,,,,,,,,,,,,,,2.21,0.514256000519,0.00095796585083,0.367448091507,1,q,658.631730795,,,,,,,,,,,,,,,,,,,,,,,,,,,,,,,,2015_Jun_18_1102,60.1511557535,LearningTask,1,22,
200,w,200,,,,,,,,,,,,,,,,,1,0,1,0,11,0,44,0,,,,,,,,,,,,,,,,,,,,,,,,,,,,,w,1,0.434216976166,None,0,4.0,squareorange.gif,go,,,,,,,,,,,,,,,,,,,,,,,,3.99,0.514182090759,0.000883102416992,0.434216976166,1,w,661.635035992,,,,,,,,,,,,,,,,,,,,,,,,,,,,,,,,2015_Jun_18_1102,60.1511557535,LearningTask,1,22,
-200,a,-200,,,,,,,,,,,,,,,,,1,0,1,0,11,1,45,3,,,,,,,,,,,,,,,,,,,,,,,,,,,,,a,1,0.35071182251,None,0,2.0,triangleyellow.gif,go,,,,,,,,,,,,,,,,,,,,,,,,2.05,0.514360904694,0.00123596191406,0.35071182251,1,a,664.638326883,,,,,,,,,,,,,,,,,,,,,,,,,,,,,,,,2015_Jun_18_1102,60.1511557535,LearningTask,1,22,
-200,q,200,,,,,,,,,,,,,,,,,1,0,1,0,11,2,46,1,,,,,,,,,,,,,,,,,,,,,,,,,,,,,q,1,0.350703954697,None,0,1.0,circlewhite.gif,go,,,,,,,,,,,,,,,,,,,,,,,,0,0.514209032059,0.00100898742676,0.350703954697,1,q,667.641469955,,,,,,,,,,,,,,,,,,,,,,,,,,,,,,,,2015_Jun_18_1102,60.1511557535,LearningTask,1,22,
-200,a,-200,,,,,,,,,,,,,,,,,1,0,1,0,11,3,47,3,,,,,,,,,,,,,,,,,,,,,,,,,,,,,a,1,0.384032964706,None,0,4.0,squareorange.gif,go,,,,,,,,,,,,,,,,,,,,,,,,3.76,0.514580965042,0.00086784362793,0.384032964706,1,a,670.645244837,,,,,,,,,,,,,,,,,,,,,,,,,,,,,,,,2015_Jun_18_1102,60.1511557535,LearningTask,1,22,
-200,a,-200,,,,,,,,,,,,,,,,,1,0,1,0,12,0,48,3,,,,,,,,,,,,,,,,,,,,,,,,,,,,,a,1,0.36704993248,None,0,4.0,diamondcyan.gif,stop,,,,,,,,,,,,,,,,,,,,,,,,3.76,0.514091014862,0.00088095664978,0.36704993248,1,a,673.648374796,,,,,,,,,,,,,,,,,,,,,,,,,,,,,,,,2015_Jun_18_1102,60.1511557535,LearningTask,1,22,
200,s,-200,,,,,,,,,,,,,,,,,1,0,1,0,12,1,49,2,,,,,,,,,,,,,,,,,,,,,,,,,,,,,s,1,0.417272090912,None,0,2.0,lineblue.gif,stop,,,,,,,,,,,,,,,,,,,,,,,,2.03,0.514400005341,0.00107192993164,0.417272090912,1,s,676.651758909,,,,,,,,,,,,,,,,,,,,,,,,,,,,,,,,2015_Jun_18_1102,60.1511557535,LearningTask,1,22,
-200,a,-200,,,,,,,,,,,,,,,,,1,0,1,0,12,2,50,3,,,,,,,,,,,,,,,,,,,,,,,,,,,,,a,1,0.317556858063,None,0,0.5,hexagonmagenta.gif,go,,,,,,,,,,,,,,,,,,,,,,,,0.41,0.514388084412,0.000884056091309,0.317556858063,1,a,679.655000925,,,,,,,,,,,,,,,,,,,,,,,,,,,,,,,,2015_Jun_18_1102,60.1511557535,LearningTask,1,22,
200,s,-200,,,,,,,,,,,,,,,,,1,0,1,0,12,3,51,2,,,,,,,,,,,,,,,,,,,,,,,,,,,,,s,1,0.400757074356,None,0,1.0,circlewhite.gif,go,,,,,,,,,,,,,,,,,,,,,,,,0,0.514432907104,0.000887870788574,0.400757074356,1,s,682.659233809,,,,,,,,,,,,,,,,,,,,,,,,,,,,,,,,2015_Jun_18_1102,60.1511557535,LearningTask,1,22,
-200,q,200,,,,,,,,,,,,,,,,,1,0,1,0,13,0,52,1,,,,,,,,,,,,,,,,,,,,,,,,,,,,,q,1,0.367866039276,None,0,4.0,diamondcyan.gif,stop,,,,,,,,,,,,,,,,,,,,,,,,4.1,0.513005971909,0.000885963439941,0.367866039276,1,q,685.662023783,,,,,,,,,,,,,,,,,,,,,,,,,,,,,,,,2015_Jun_18_1102,60.1511557535,LearningTask,1,22,
-200,a,-200,,,,,,,,,,,,,,,,,1,0,1,0,13,1,53,3,,,,,,,,,,,,,,,,,,,,,,,,,,,,,a,1,0.367702960968,None,0,0.5,invertedtrianglegreen.gif,stop,,,,,,,,,,,,,,,,,,,,,,,,0.71,0.514200925827,0.000877857208252,0.367702960968,1,a,688.665208817,,,,,,,,,,,,,,,,,,,,,,,,,,,,,,,,2015_Jun_18_1102,60.1511557535,LearningTask,1,22,
200,w,200,,,,,,,,,,,,,,,,,1,0,1,0,13,2,54,0,,,,,,,,,,,,,,,,,,,,,,,,,,,,,w,1,0.384227991104,None,0,2.0,triangleyellow.gif,go,,,,,,,,,,,,,,,,,,,,,,,,1.87,0.514339923859,0.00088095664978,0.384227991104,1,w,691.668831825,,,,,,,,,,,,,,,,,,,,,,,,,,,,,,,,2015_Jun_18_1102,60.1511557535,LearningTask,1,22,
-200,a,-200,,,,,,,,,,,,,,,,,1,0,1,0,13,3,55,3,,,,,,,,,,,,,,,,,,,,,,,,,,,,,a,1,0.367848157883,None,0,4.0,diamondcyan.gif,stop,,,,,,,,,,,,,,,,,,,,,,,,0,0.513886928558,0.000910997390747,0.367848157883,1,a,694.67193985,,,,,,,,,,,,,,,,,,,,,,,,,,,,,,,,2015_Jun_18_1102,60.1511557535,LearningTask,1,22,
-200,q,200,,,,,,,,,,,,,,,,,1,0,1,0,14,0,56,1,,,,,,,,,,,,,,,,,,,,,,,,,,,,,q,1,0.351164102554,None,0,2.0,lineblue.gif,stop,,,,,,,,,,,,,,,,,,,,,,,,2.13,0.514211177826,0.00117516517639,0.351164102554,1,q,697.675176859,,,,,,,,,,,,,,,,,,,,,,,,,,,,,,,,2015_Jun_18_1102,60.1511557535,LearningTask,1,22,
200,s,-200,,,,,,,,,,,,,,,,,1,0,1,0,14,1,57,2,,,,,,,,,,,,,,,,,,,,,,,,,,,,,s,1,0.351073980331,None,0,1.0,circlewhite.gif,go,,,,,,,,,,,,,,,,,,,,,,,,0,0.514144182205,0.000879049301147,0.351073980331,1,s,700.678907871,,,,,,,,,,,,,,,,,,,,,,,,,,,,,,,,2015_Jun_18_1102,60.1511557535,LearningTask,1,22,
-200,q,200,,,,,,,,,,,,,,,,,1,0,1,0,14,2,58,1,,,,,,,,,,,,,,,,,,,,,,,,,,,,,q,1,0.30064201355,None,0,1.0,circlewhite.gif,go,,,,,,,,,,,,,,,,,,,,,,,,1.19,0.513875007629,0.000892162322998,0.30064201355,1,q,703.681952,,,,,,,,,,,,,,,,,,,,,,,,,,,,,,,,2015_Jun_18_1102,60.1511557535,LearningTask,1,22,
200,w,200,,,,,,,,,,,,,,,,,1,0,1,0,14,3,59,0,,,,,,,,,,,,,,,,,,,,,,,,,,,,,w,1,0.334317922592,None,0,4.0,diamondcyan.gif,stop,,,,,,,,,,,,,,,,,,,,,,,,3.96,0.514018058777,0.00107789039612,0.334317922592,1,w,706.685637951,,,,,,,,,,,,,,,,,,,,,,,,,,,,,,,,2015_Jun_18_1102,60.1511557535,LearningTask,1,22,
-200,a,-200,,,,,,,,,,,,,,,,,1,0,1,0,15,0,60,3,,,,,,,,,,,,,,,,,,,,,,,,,,,,,a,1,0.301276922226,None,0,0.5,hexagonmagenta.gif,go,,,,,,,,,,,,,,,,,,,,,,,,0,0.513879060745,0.000880002975464,0.301276922226,1,a,709.688699007,,,,,,,,,,,,,,,,,,,,,,,,,,,,,,,,2015_Jun_18_1102,60.1511557535,LearningTask,1,22,
-200,a,-200,,,,,,,,,,,,,,,,,1,0,1,0,15,1,61,3,,,,,,,,,,,,,,,,,,,,,,,,,,,,,a,1,0.383968114853,None,0,2.0,lineblue.gif,stop,,,,,,,,,,,,,,,,,,,,,,,,0,0.514534950256,0.00089693069458,0.383968114853,1,a,712.692021847,,,,,,,,,,,,,,,,,,,,,,,,,,,,,,,,2015_Jun_18_1102,60.1511557535,LearningTask,1,22,
200,s,-200,,,,,,,,,,,,,,,,,1,0,1,0,15,2,62,2,,,,,,,,,,,,,,,,,,,,,,,,,,,,,s,1,0.350672960281,None,0,2.0,lineblue.gif,stop,,,,,,,,,,,,,,,,,,,,,,,,1.93,0.514227151871,0.00104713439941,0.350672960281,1,s,715.695138931,,,,,,,,,,,,,,,,,,,,,,,,,,,,,,,,2015_Jun_18_1102,60.1511557535,LearningTask,1,22,
200,w,200,,,,,,,,,,,,,,,,,1,0,1,0,15,3,63,0,,,,,,,,,,,,,,,,,,,,,,,,,,,,,w,1,0.317680120468,None,0,0.5,invertedtrianglegreen.gif,stop,,,,,,,,,,,,,,,,,,,,,,,,0.38,0.514369010925,0.000869989395142,0.317680120468,1,w,718.699007988,,,,,,,,,,,,,,,,,,,,,,,,,,,,,,,,2015_Jun_18_1102,60.1511557535,LearningTask,1,22,
200,w,200,,,,,,,,,,,,,,,,,1,0,1,0,16,0,64,0,,,,,,,,,,,,,,,,,,,,,,,,,,,,,w,1,0.350296974182,None,0,2.0,triangleyellow.gif,go,,,,,,,,,,,,,,,,,,,,,,,,1.85,0.514312982559,0.000870943069458,0.350296974182,1,w,721.702078819,,,,,,,,,,,,,,,,,,,,,,,,,,,,,,,,2015_Jun_18_1102,60.1511557535,LearningTask,1,22,
-200,q,200,,,,,,,,,,,,,,,,,1,0,1,0,16,1,65,1,,,,,,,,,,,,,,,,,,,,,,,,,,,,,q,1,0.351302146912,None,0,4.0,squareorange.gif,go,,,,,,,,,,,,,,,,,,,,,,,,1.85,0.514317989349,0.000991106033325,0.317100048065,0,a,724.705397844,,,3.9,0.51554608345,0.000933170318604,0.351302146912,1,q,727.708971977,,,,,,,,,,,,,,,,,,,,,,,2015_Jun_18_1102,60.1511557535,LearningTask,1,22,
200,s,-200,,,,,,,,,,,,,,,,,1,0,1,0,16,2,66,2,,,,,,,,,,,,,,,,,,,,,,,,,,,,,s,1,0.38428401947,None,0,2.0,lineblue.gif,stop,,,,,,,,,,,,,,,,,,,,,,,,2.22,0.514086008072,0.000874042510986,0.38428401947,1,s,730.712080956,,,,,,,,,,,,,,,,,,,,,,,,,,,,,,,,2015_Jun_18_1102,60.1511557535,LearningTask,1,22,
-200,q,200,,,,,,,,,,,,,,,,,1,0,1,0,16,3,67,1,,,,,,,,,,,,,,,,,,,,,,,,,,,,,q,1,0.38462305069,None,0,4.0,squareorange.gif,go,,,,,,,,,,,,,,,,,,,,,,,,3.94,0.51394701004,0.000904083251953,0.38462305069,1,q,733.715487003,,,,,,,,,,,,,,,,,,,,,,,,,,,,,,,,2015_Jun_18_1102,60.1511557535,LearningTask,1,22,
-200,q,200,,,,,,,,,,,,,,,,,1,0,1,0,17,0,68,1,,,,,,,,,,,,,,,,,,,,,,,,,,,,,q,1,0.35044503212,None,0,4.0,squareorange.gif,go,,,,,,,,,,,,,,,,,,,,,,,,3.93,0.514556884766,0.000875949859619,0.35044503212,1,q,736.718930006,,,,,,,,,,,,,,,,,,,,,,,,,,,,,,,,2015_Jun_18_1102,60.1511557535,LearningTask,1,22,
200,w,200,,,,,,,,,,,,,,,,,1,0,1,0,17,1,69,0,,,,,,,,,,,,,,,,,,,,,,,,,,,,,w,1,0.384394168854,None,0,1.0,crossgray.gif,stop,,,,,,,,,,,,,,,,,,,,,,,,0.78,0.514323949814,0.000881910324097,0.384394168854,1,w,739.722483873,,,,,,,,,,,,,,,,,,,,,,,,,,,,,,,,2015_Jun_18_1102,60.1511557535,LearningTask,1,22,
200,s,-200,,,,,,,,,,,,,,,,,1,0,1,0,17,2,70,2,,,,,,,,,,,,,,,,,,,,,,,,,,,,,s,1,0.417397022247,None,0,0.5,invertedtrianglegreen.gif,stop,,,,,,,,,,,,,,,,,,,,,,,,0.35,0.513643980026,0.00090503692627,0.417397022247,1,s,742.725534916,,,,,,,,,,,,,,,,,,,,,,,,,,,,,,,,2015_Jun_18_1102,60.1511557535,LearningTask,1,22,
200,s,-200,,,,,,,,,,,,,,,,,1,0,1,0,17,3,71,2,,,,,,,,,,,,,,,,,,,,,,,,,,,,,s,1,0.384184837341,None,0,0.5,invertedtrianglegreen.gif,stop,,,,,,,,,,,,,,,,,,,,,,,,0,0.514359951019,0.00088095664978,0.384184837341,1,s,745.728785992,,,,,,,,,,,,,,,,,,,,,,,,,,,,,,,,2015_Jun_18_1102,60.1511557535,LearningTask,1,22,
-200,a,-200,,,,,,,,,,,,,,,,,1,0,1,0,18,0,72,3,,,,,,,,,,,,,,,,,,,,,,,,,,,,,a,1,0.417515039444,None,0,1.0,circlewhite.gif,go,,,,,,,,,,,,,,,,,,,,,,,,0.9,0.514429092407,0.000880002975464,0.417515039444,1,a,748.732684851,,,,,,,,,,,,,,,,,,,,,,,,,,,,,,,,2015_Jun_18_1102,60.1511557535,LearningTask,1,22,
200,s,-200,,,,,,,,,,,,,,,,,1,0,1,0,18,1,73,2,,,,,,,,,,,,,,,,,,,,,,,,,,,,,s,1,0.417614936829,None,0,4.0,diamondcyan.gif,stop,,,,,,,,,,,,,,,,,,,,,,,,4.14,0.513906955719,0.000888109207153,0.417614936829,1,s,751.735504866,,,,,,,,,,,,,,,,,,,,,,,,,,,,,,,,2015_Jun_18_1102,60.1511557535,LearningTask,1,22,
200,w,200,,,,,,,,,,,,,,,,,1,0,1,0,18,2,74,0,,,,,,,,,,,,,,,,,,,,,,,,,,,,,w,1,0.367695093155,None,0,2.0,lineblue.gif,stop,,,,,,,,,,,,,,,,,,,,,,,,1.81,0.514351129532,0.000931024551392,0.367695093155,1,w,754.73884201,,,,,,,,,,,,,,,,,,,,,,,,,,,,,,,,2015_Jun_18_1102,60.1511557535,LearningTask,1,22,
200,w,200,,,,,,,,,,,,,,,,,1,0,1,0,18,3,75,0,,,,,,,,,,,,,,,,,,,,,,,,,,,,,w,1,0.351130962372,None,0,0.5,invertedtrianglegreen.gif,stop,,,,,,,,,,,,,,,,,,,,,,,,0.59,0.5143699646,0.000876903533936,0.351130962372,1,w,757.742401838,,,,,,,,,,,,,,,,,,,,,,,,,,,,,,,,2015_Jun_18_1102,60.1511557535,LearningTask,1,22,
200,s,-200,,,,,,,,,,,,,,,,,1,0,1,0,19,0,76,2,,,,,,,,,,,,,,,,,,,,,,,,,,,,,s,1,0.333989143372,None,0,4.0,squareorange.gif,go,,,,,,,,,,,,,,,,,,,,,,,,4.25,0.514260053635,0.000881195068359,0.333989143372,1,s,760.745677948,,,,,,,,,,,,,,,,,,,,,,,,,,,,,,,,2015_Jun_18_1102,60.1511557535,LearningTask,1,22,
200,w,200,,,,,,,,,,,,,,,,,1,0,1,0,19,1,77,0,,,,,,,,,,,,,,,,,,,,,,,,,,,,,w,1,0.350740194321,None,0,4.0,diamondcyan.gif,stop,,,,,,,,,,,,,,,,,,,,,,,,4.06,0.514228820801,0.00100183486938,0.350740194321,1,w,763.748837948,,,,,,,,,,,,,,,,,,,,,,,,,,,,,,,,2015_Jun_18_1102,60.1511557535,LearningTask,1,22,
-200,a,-200,,,,,,,,,,,,,,,,,1,0,1,0,19,2,78,3,,,,,,,,,,,,,,,,,,,,,,,,,,,,,a,1,0.400786876678,None,0,4.0,diamondcyan.gif,stop,,,,,,,,,,,,,,,,,,,,,,,,3.96,0.514651060104,0.00088095664978,0.400786876678,1,a,766.752357006,,,,,,,,,,,,,,,,,,,,,,,,,,,,,,,,2015_Jun_18_1102,60.1511557535,LearningTask,1,22,
-200,a,-200,,,,,,,,,,,,,,,,,1,0,1,0,19,3,79,3,,,,,,,,,,,,,,,,,,,,,,,,,,,,,a,1,0.350997924805,None,0,0.5,invertedtrianglegreen.gif,stop,,,,,,,,,,,,,,,,,,,,,,,,0,0.514424085617,0.000875949859619,0.350997924805,1,a,769.755740881,,,,,,,,,,,,,,,,,,,,,,,,,,,,,,,,2015_Jun_18_1102,60.1511557535,LearningTask,1,22,
200,s,-200,,,,,,,,,,,,,,,,,1,0,1,0,20,0,80,2,,,,,,,,,,,,,,,,,,,,,,,,,,,,,s,1,0.317419052124,None,0,4.0,squareorange.gif,go,,,,,,,,,,,,,,,,,,,,,,,,4.05,0.514309167862,0.000926971435547,0.317419052124,1,s,772.759068966,,,,,,,,,,,,,,,,,,,,,,,,,,,,,,,,2015_Jun_18_1102,60.1511557535,LearningTask,1,22,
200,s,-200,,,,,,,,,,,,,,,,,1,0,1,0,20,1,81,2,,,,,,,,,,,,,,,,,,,,,,,,,,,,,s,1,0.367100954056,None,0,4.0,diamondcyan.gif,stop,,,,,,,,,,,,,,,,,,,,,,,,4.04,0.514396905899,0.000937938690186,0.367100954056,1,s,775.762475967,,,,,,,,,,,,,,,,,,,,,,,,,,,,,,,,2015_Jun_18_1102,60.1511557535,LearningTask,1,22,
200,w,200,,,,,,,,,,,,,,,,,1,0,1,0,20,2,82,0,,,,,,,,,,,,,,,,,,,,,,,,,,,,,w,1,0.367805957794,None,0,4.0,squareorange.gif,go,,,,,,,,,,,,,,,,,,,,,,,,3.95,0.514297008514,0.000871896743774,0.367805957794,1,w,778.765899897,,,,,,,,,,,,,,,,,,,,,,,,,,,,,,,,2015_Jun_18_1102,60.1511557535,LearningTask,1,22,
200,s,-200,,,,,,,,,,,,,,,,,1,0,1,0,20,3,83,2,,,,,,,,,,,,,,,,,,,,,,,,,,,,,s,1,0.401497125626,None,0,1.0,circlewhite.gif,go,,,,,,,,,,,,,,,,,,,,,,,,0,0.51388001442,0.000890016555786,0.401497125626,1,s,781.769099951,,,,,,,,,,,,,,,,,,,,,,,,,,,,,,,,2015_Jun_18_1102,60.1511557535,LearningTask,1,22,
-200,q,200,,,,,,,,,,,,,,,,,1,0,1,0,21,0,84,1,,,,,,,,,,,,,,,,,,,,,,,,,,,,,q,1,0.384171009064,None,0,1.0,circlewhite.gif,go,,,,,,,,,,,,,,,,,,,,,,,,1.03,0.514576911926,0.000878095626831,0.384171009064,1,q,784.772622824,,,,,,,,,,,,,,,,,,,,,,,,,,,,,,,,2015_Jun_18_1102,60.1511557535,LearningTask,1,22,
200,w,200,,,,,,,,,,,,,,,,,1,0,1,0,21,1,85,0,,,,,,,,,,,,,,,,,,,,,,,,,,,,,w,1,0.333760023117,None,0,1.0,circlewhite.gif,go,,,,,,,,,,,,,,,,,,,,,,,,1.02,0.51447892189,0.000877857208252,0.333760023117,1,w,787.776189804,,,,,,,,,,,,,,,,,,,,,,,,,,,,,,,,2015_Jun_18_1102,60.1511557535,LearningTask,1,22,
200,s,-200,,,,,,,,,,,,,,,,,1,0,1,0,21,2,86,2,,,,,,,,,,,,,,,,,,,,,,,,,,,,,s,1,0.401396989822,None,0,4.0,diamondcyan.gif,stop,,,,,,,,,,,,,,,,,,,,,,,,0,0.513962030411,0.000895023345947,0.401396989822,1,s,790.779210806,,,,,,,,,,,,,,,,,,,,,,,,,,,,,,,,2015_Jun_18_1102,60.1511557535,LearningTask,1,22,
-200,a,-200,,,,,,,,,,,,,,,,,1,0,1,0,21,3,87,3,,,,,,,,,,,,,,,,,,,,,,,,,,,,,a,1,0.367017030716,None,0,4.0,squareorange.gif,go,,,,,,,,,,,,,,,,,,,,,,,,0,0.514636039734,0.000863075256348,0.367017030716,1,a,793.782822847,,,,,,,,,,,,,,,,,,,,,,,,,,,,,,,,2015_Jun_18_1102,60.1511557535,LearningTask,1,22,
-200,q,200,,,,,,,,,,,,,,,,,1,0,1,0,22,0,88,1,,,,,,,,,,,,,,,,,,,,,,,,,,,,,q,1,0.33429312706,None,0,0.5,hexagonmagenta.gif,go,,,,,,,,,,,,,,,,,,,,,,,,0.73,0.513776063919,0.000972986221313,0.33429312706,1,q,796.78628087,,,,,,,,,,,,,,,,,,,,,,,,,,,,,,,,2015_Jun_18_1102,60.1511557535,LearningTask,1,22,
200,w,200,,,,,,,,,,,,,,,,,1,0,1,0,22,1,89,0,,,,,,,,,,,,,,,,,,,,,,,,,,,,,w,1,0.334513187408,None,0,0.5,invertedtrianglegreen.gif,stop,,,,,,,,,,,,,,,,,,,,,,,,0.52,0.513820886612,0.000877857208252,0.334513187408,1,w,799.789424896,,,,,,,,,,,,,,,,,,,,,,,,,,,,,,,,2015_Jun_18_1102,60.1511557535,LearningTask,1,22,
-200,q,200,,,,,,,,,,,,,,,,,1,0,1,0,22,2,90,1,,,,,,,,,,,,,,,,,,,,,,,,,,,,,q,1,0.333623886108,None,0,1.0,circlewhite.gif,go,,,,,,,,,,,,,,,,,,,,,,,,0,0.514506101608,0.00099515914917,0.333623886108,1,q,802.792802811,,,,,,,,,,,,,,,,,,,,,,,,,,,,,,,,2015_Jun_18_1102,60.1511557535,LearningTask,1,22,
200,w,200,,,,,,,,,,,,,,,,,1,0,1,0,22,3,91,0,,,,,,,,,,,,,,,,,,,,,,,,,,,,,w,1,0.350682020187,None,0,0.5,hexagonmagenta.gif,go,,,,,,,,,,,,,,,,,,,,,,,,0,0.514432907104,0.000881910324097,0.350682020187,1,w,805.796178818,,,,,,,,,,,,,,,,,,,,,,,,,,,,,,,,2015_Jun_18_1102,60.1511557535,LearningTask,1,22,
-200,q,200,,,,,,,,,,,,,,,,,1,0,1,0,23,0,92,1,,,,,,,,,,,,,,,,,,,,,,,,,,,,,q,1,0.351119995117,None,0,2.0,triangleyellow.gif,go,,,,,,,,,,,,,,,,,,,,,,,,2.0,0.514174938202,0.000885963439941,0.351119995117,1,q,808.799305916,,,,,,,,,,,,,,,,,,,,,,,,,,,,,,,,2015_Jun_18_1102,60.1511557535,LearningTask,1,22,
-200,q,200,,,,,,,,,,,,,,,,,1,0,1,0,23,1,93,1,,,,,,,,,,,,,,,,,,,,,,,,,,,,,q,1,0.334247112274,None,0,4.0,diamondcyan.gif,stop,,,,,,,,,,,,,,,,,,,,,,,,4.16,0.514361143112,0.000969171524048,0.334247112274,1,q,811.802549839,,,,,,,,,,,,,,,,,,,,,,,,,,,,,,,,2015_Jun_18_1102,60.1511557535,LearningTask,1,22,
200,w,200,,,,,,,,,,,,,,,,,1,0,1,0,23,2,94,0,,,,,,,,,,,,,,,,,,,,,,,,,,,,,w,1,0.367381095886,None,0,4.0,diamondcyan.gif,stop,,,,,,,,,,,,,,,,,,,,,,,,4.06,0.514646053314,0.000869989395142,0.367381095886,1,w,814.806118965,,,,,,,,,,,,,,,,,,,,,,,,,,,,,,,,2015_Jun_18_1102,60.1511557535,LearningTask,1,22,
200,s,-200,,,,,,,,,,,,,,,,,1,0,1,0,23,3,95,2,,,,,,,,,,,,,,,,,,,,,,,,,,,,,s,1,0.400862932205,None,0,1.0,circlewhite.gif,go,,,,,,,,,,,,,,,,,,,,,,,,0.86,0.514081001282,0.000918865203857,0.400862932205,1,s,817.809326887,,,,,,,,,,,,,,,,,,,,,,,,,,,,,,,,2015_Jun_18_1102,60.1511557535,LearningTask,1,22,
200,w,200,,,,,,,,,,,,,,,,,1,0,1,0,24,0,96,0,,,,,,,,,,,,,,,,,,,,,,,,,,,,,w,1,0.350527048111,None,0,1.0,circlewhite.gif,go,,,,,,,,,,,,,,,,,,,,,,,,0.88,0.514584064484,0.000919103622437,0.350527048111,1,w,820.812762976,,,,,,,,,,,,,,,,,,,,,,,,,,,,,,,,2015_Jun_18_1102,60.1511557535,LearningTask,1,22,
-200,q,200,,,,,,,,,,,,,,,,,1,0,1,0,24,1,97,1,,,,,,,,,,,,,,,,,,,,,,,,,,,,,q,1,0.384317874908,None,0,2.0,triangleyellow.gif,go,,,,,,,,,,,,,,,,,,,,,,,,0.88,0.514471054077,0.000874996185303,0.283939838409,0,a,823.81614995,,,0,0.51548910141,0.000947952270508,0.384317874908,1,q,826.819445848,,,,,,,,,,,,,,,,,,,,,,,2015_Jun_18_1102,60.1511557535,LearningTask,1,22,
200,s,-200,,,,,,,,,,,,,,,,,1,0,1,0,24,2,98,2,,,,,,,,,,,,,,,,,,,,,,,,,,,,,s,1,0.467111825943,None,0,1.0,circlewhite.gif,go,,,,,,,,,,,,,,,,,,,,,,,,0.75,0.51452589035,0.000911951065063,0.467111825943,1,s,829.822817802,,,,,,,,,,,,,,,,,,,,,,,,,,,,,,,,2015_Jun_18_1102,60.1511557535,LearningTask,1,22,
-200,a,-200,,,,,,,,,,,,,,,,,1,0,1,0,24,3,99,3,,,,,,,,,,,,,,,,,,,,,,,,,,,,,a,1,0.384320020676,None,0,4.0,diamondcyan.gif,stop,,,,,,,,,,,,,,,,,,,,,,,,3.79,0.514418840408,0.000872850418091,0.384320020676,1,a,832.826733828,,,,,,,,,,,,,,,,,,,,,,,,,,,,,,,,2015_Jun_18_1102,60.1511557535,LearningTask,1,22,
,,,,,,,,,,,,,,,,,,,1,0,1,0,,,,,,,,,,,,,,,,,,,,,,,,,,,,,,,,,,,,,,,,,,,,,,,,,,,,,,,,,,,,,,,,,,,,,,,9,34.6276700497,,,,,,,,,,,,,,,,,,,,,,,,,,,,,,2015_Jun_18_1102,60.1511557535,LearningTask,1,22,
200,s,-200,,,,,,,,,,,,,,,,,2,0,2,0,0,0,0,2,,,,,,,,,,,,,,,,,,,,,,,,,,,,,s,1,0.534497976303,None,0,4.0,diamondcyan.gif,stop,,,,,,,,,,,,,,,,,,,,,,,,4.08,0.50968503952,0.000963926315308,0.534497976303,1,s,871.002680779,,,,,,,,,,,,,,,,,,,,,,,,,,,,,,,,2015_Jun_18_1102,60.1511557535,LearningTask,1,22,
200,w,200,,,,,,,,,,,,,,,,,2,0,2,0,0,1,1,0,,,,,,,,,,,,,,,,,,,,,,,,,,,,,w,1,0.367859840393,None,0,1.0,circlewhite.gif,go,,,,,,,,,,,,,,,,,,,,,,,,0.85,0.513803958893,0.000878095626831,0.367859840393,1,w,874.005622864,,,,,,,,,,,,,,,,,,,,,,,,,,,,,,,,2015_Jun_18_1102,60.1511557535,LearningTask,1,22,
-200,q,200,,,,,,,,,,,,,,,,,2,0,2,0,0,2,2,1,,,,,,,,,,,,,,,,,,,,,,,,,,,,,q,1,0.350988149643,None,0,4.0,diamondcyan.gif,stop,,,,,,,,,,,,,,,,,,,,,,,,3.99,0.514548063278,0.000883102416992,0.350988149643,1,q,877.008980989,,,,,,,,,,,,,,,,,,,,,,,,,,,,,,,,2015_Jun_18_1102,60.1511557535,LearningTask,1,22,
200,w,200,,,,,,,,,,,,,,,,,2,0,2,0,0,3,3,0,,,,,,,,,,,,,,,,,,,,,,,,,,,,,w,1,0.350593090057,None,0,0.5,hexagonmagenta.gif,go,,,,,,,,,,,,,,,,,,,,,,,,0.36,0.514182090759,0.000890970230103,0.350593090057,1,w,880.012303829,,,,,,,,,,,,,,,,,,,,,,,,,,,,,,,,2015_Jun_18_1102,60.1511557535,LearningTask,1,22,
-200,q,200,,,,,,,,,,,,,,,,,2,0,2,0,1,0,4,1,,,,,,,,,,,,,,,,,,,,,,,,,,,,,q,1,0.334174156189,None,0,4.0,diamondcyan.gif,stop,,,,,,,,,,,,,,,,,,,,,,,,0,0.514271020889,0.000872135162354,0.334174156189,1,q,883.015619993,,,,,,,,,,,,,,,,,,,,,,,,,,,,,,,,2015_Jun_18_1102,60.1511557535,LearningTask,1,22,
-200,q,200,,,,,,,,,,,,,,,,,2,0,2,0,1,1,5,1,,,,,,,,,,,,,,,,,,,,,,,,,,,,,q,1,0.367990970612,None,0,1.0,circlewhite.gif,go,,,,,,,,,,,,,,,,,,,,,,,,1.18,0.514317989349,0.000875949859619,0.367990970612,1,q,886.019373894,,,,,,,,,,,,,,,,,,,,,,,,,,,,,,,,2015_Jun_18_1102,60.1511557535,LearningTask,1,22,
-200,a,-200,,,,,,,,,,,,,,,,,2,0,2,0,1,2,6,3,,,,,,,,,,,,,,,,,,,,,,,,,,,,,a,1,0.36745595932,None,0,1.0,crossgray.gif,stop,,,,,,,,,,,,,,,,,,,,,,,,0,0.513886928558,0.000898122787476,0.36745595932,1,a,889.023015976,,,,,,,,,,,,,,,,,,,,,,,,,,,,,,,,2015_Jun_18_1102,60.1511557535,LearningTask,1,22,
200,s,-200,,,,,,,,,,,,,,,,,2,0,2,0,1,3,7,2,,,,,,,,,,,,,,,,,,,,,,,,,,,,,s,1,0.350875139236,None,0,1.0,crossgray.gif,stop,,,,,,,,,,,,,,,,,,,,,,,,0,0.513421058655,0.00117897987366,0.350875139236,1,s,892.025776863,,,,,,,,,,,,,,,,,,,,,,,,,,,,,,,,2015_Jun_18_1102,60.1511557535,LearningTask,1,22,
200,w,200,,,,,,,,,,,,,,,,,2,0,2,0,2,0,8,0,,,,,,,,,,,,,,,,,,,,,,,,,,,,,w,1,0.384428977966,None,0,4.0,squareorange.gif,go,,,,,,,,,,,,,,,,,,,,,,,,4.14,0.514277935028,0.000869035720825,0.384428977966,1,w,895.029486895,,,,,,,,,,,,,,,,,,,,,,,,,,,,,,,,2015_Jun_18_1102,60.1511557535,LearningTask,1,22,
-200,q,200,,,,,,,,,,,,,,,,,2,0,2,0,2,1,9,1,,,,,,,,,,,,,,,,,,,,,,,,,,,,,q,1,0.367830991745,None,0,4.0,diamondcyan.gif,stop,,,,,,,,,,,,,,,,,,,,,,,,4.01,0.513933181763,0.000886201858521,0.367830991745,1,q,898.032836914,,,,,,,,,,,,,,,,,,,,,,,,,,,,,,,,2015_Jun_18_1102,60.1511557535,LearningTask,1,22,
200,w,200,,,,,,,,,,,,,,,,,2,0,2,0,2,2,10,0,,,,,,,,,,,,,,,,,,,,,,,,,,,,,w,1,0.334202051163,None,0,0.5,hexagonmagenta.gif,go,,,,,,,,,,,,,,,,,,,,,,,,0.56,0.513890981674,0.000972032546997,0.334202051163,1,w,901.035743952,,,,,,,,,,,,,,,,,,,,,,,,,,,,,,,,2015_Jun_18_1102,60.1511557535,LearningTask,1,22,
-200,q,200,,,,,,,,,,,,,,,,,2,0,2,0,2,3,11,1,,,,,,,,,,,,,,,,,,,,,,,,,,,,,q,1,0.351090908051,None,0,2.0,triangleyellow.gif,go,,,,,,,,,,,,,,,,,,,,,,,,1.86,0.514309167862,0.000910043716431,0.351090908051,1,q,904.039398909,,,,,,,,,,,,,,,,,,,,,,,,,,,,,,,,2015_Jun_18_1102,60.1511557535,LearningTask,1,22,
200,s,-200,,,,,,,,,,,,,,,,,2,0,2,0,3,0,12,2,,,,,,,,,,,,,,,,,,,,,,,,,,,,,s,1,0.384376049042,None,0,2.0,triangleyellow.gif,go,,,,,,,,,,,,,,,,,,,,,,,,0,0.513782024384,0.00088095664978,0.384376049042,1,s,907.042460918,,,,,,,,,,,,,,,,,,,,,,,,,,,,,,,,2015_Jun_18_1102,60.1511557535,LearningTask,1,22,
-200,a,-200,,,,,,,,,,,,,,,,,2,0,2,0,3,1,13,3,,,,,,,,,,,,,,,,,,,,,,,,,,,,,a,1,0.417882919312,None,0,0.5,invertedtrianglegreen.gif,stop,,,,,,,,,,,,,,,,,,,,,,,,0.52,0.514178991318,0.00103187561035,0.417882919312,1,a,910.045732975,,,,,,,,,,,,,,,,,,,,,,,,,,,,,,,,2015_Jun_18_1102,60.1511557535,LearningTask,1,22,
200,s,-200,,,,,,,,,,,,,,,,,2,0,2,0,3,2,14,2,,,,,,,,,,,,,,,,,,,,,,,,,,,,,s,1,0.417778015137,None,0,2.0,lineblue.gif,stop,,,,,,,,,,,,,,,,,,,,,,,,2.22,0.514319896698,0.000972986221313,0.417778015137,1,s,913.049182892,,,,,,,,,,,,,,,,,,,,,,,,,,,,,,,,2015_Jun_18_1102,60.1511557535,LearningTask,1,22,
-200,q,200,,,,,,,,,,,,,,,,,2,0,2,0,3,3,15,1,,,,,,,,,,,,,,,,,,,,,,,,,,,,,q,1,0.350951194763,None,0,0.5,hexagonmagenta.gif,go,,,,,,,,,,,,,,,,,,,,,,,,0.74,0.514202833176,0.000880002975464,0.350951194763,1,q,916.052575827,,,,,,,,,,,,,,,,,,,,,,,,,,,,,,,,2015_Jun_18_1102,60.1511557535,LearningTask,1,22,
-200,a,-200,,,,,,,,,,,,,,,,,2,0,2,0,4,0,16,3,,,,,,,,,,,,,,,,,,,,,,,,,,,,,a,1,0.384744882584,None,0,4.0,squareorange.gif,go,,,,,,,,,,,,,,,,,,,,,,,,4.12,0.513982057571,0.000920057296753,0.384744882584,1,a,919.055962801,,,,,,,,,,,,,,,,,,,,,,,,,,,,,,,,2015_Jun_18_1102,60.1511557535,LearningTask,1,22,
200,s,-200,,,,,,,,,,,,,,,,,2,0,2,0,4,1,17,2,,,,,,,,,,,,,,,,,,,,,,,,,,,,,s,1,0.384444952011,None,0,0.5,hexagonmagenta.gif,go,,,,,,,,,,,,,,,,,,,,,,,,0,0.514211177826,0.000916957855225,0.384444952011,1,s,922.0592978,,,,,,,,,,,,,,,,,,,,,,,,,,,,,,,,2015_Jun_18_1102,60.1511557535,LearningTask,1,22,
-200,q,200,,,,,,,,,,,,,,,,,2,0,2,0,4,2,18,1,,,,,,,,,,,,,,,,,,,,,,,,,,,,,q,1,0.38404583931,None,0,0.5,hexagonmagenta.gif,go,,,,,,,,,,,,,,,,,,,,,,,,0.32,0.514292001724,0.000882148742676,0.38404583931,1,q,925.062713861,,,,,,,,,,,,,,,,,,,,,,,,,,,,,,,,2015_Jun_18_1102,60.1511557535,LearningTask,1,22,
-200,a,-200,,,,,,,,,,,,,,,,,2,0,2,0,4,3,19,3,,,,,,,,,,,,,,,,,,,,,,,,,,,,,a,1,0.384063005447,None,0,0.5,invertedtrianglegreen.gif,stop,,,,,,,,,,,,,,,,,,,,,,,,0,0.514390945435,0.000881910324097,0.384063005447,1,a,928.065989971,,,,,,,,,,,,,,,,,,,,,,,,,,,,,,,,2015_Jun_18_1102,60.1511557535,LearningTask,1,22,
-200,a,-200,,,,,,,,,,,,,,,,,2,0,2,0,5,0,20,3,,,,,,,,,,,,,,,,,,,,,,,,,,,,,a,1,0.417913913727,None,0,1.0,crossgray.gif,stop,,,,,,,,,,,,,,,,,,,,,,,,0.85,0.514312982559,0.000875949859619,0.417913913727,1,a,931.069331884,,,,,,,,,,,,,,,,,,,,,,,,,,,,,,,,2015_Jun_18_1102,60.1511557535,LearningTask,1,22,
200,w,200,,,,,,,,,,,,,,,,,2,0,2,0,5,1,21,0,,,,,,,,,,,,,,,,,,,,,,,,,,,,,w,1,0.400820970535,None,0,1.0,crossgray.gif,stop,,,,,,,,,,,,,,,,,,,,,,,,0.9,0.514277935028,0.000985860824585,0.400820970535,1,w,934.072924852,,,,,,,,,,,,,,,,,,,,,,,,,,,,,,,,2015_Jun_18_1102,60.1511557535,LearningTask,1,22,
200,s,-200,,,,,,,,,,,,,,,,,2,0,2,0,5,2,22,2,,,,,,,,,,,,,,,,,,,,,,,,,,,,,s,1,0.401014089584,None,0,2.0,lineblue.gif,stop,,,,,,,,,,,,,,,,,,,,,,,,2.01,0.514117002487,0.000931978225708,0.401014089584,1,s,937.076081991,,,,,,,,,,,,,,,,,,,,,,,,,,,,,,,,2015_Jun_18_1102,60.1511557535,LearningTask,1,22,
-200,a,-200,,,,,,,,,,,,,,,,,2,0,2,0,5,3,23,3,,,,,,,,,,,,,,,,,,,,,,,,,,,,,a,1,0.3678150177,None,0,0.5,hexagonmagenta.gif,go,,,,,,,,,,,,,,,,,,,,,,,,0.4,0.514060020447,0.000874042510986,0.3678150177,1,a,940.079518795,,,,,,,,,,,,,,,,,,,,,,,,,,,,,,,,2015_Jun_18_1102,60.1511557535,LearningTask,1,22,
-200,a,-200,,,,,,,,,,,,,,,,,2,0,2,0,6,0,24,3,,,,,,,,,,,,,,,,,,,,,,,,,,,,,a,1,0.383894920349,None,0,2.0,lineblue.gif,stop,,,,,,,,,,,,,,,,,,,,,,,,1.99,0.514405965805,0.00088095664978,0.383894920349,1,a,943.083067894,,,,,,,,,,,,,,,,,,,,,,,,,,,,,,,,2015_Jun_18_1102,60.1511557535,LearningTask,1,22,
-200,q,200,,,,,,,,,,,,,,,,,2,0,2,0,6,1,25,1,,,,,,,,,,,,,,,,,,,,,,,,,,,,,q,1,0.351014137268,None,0,1.0,circlewhite.gif,go,,,,,,,,,,,,,,,,,,,,,,,,1.11,0.513630867004,0.000883817672729,0.351014137268,1,q,946.086086988,,,,,,,,,,,,,,,,,,,,,,,,,,,,,,,,2015_Jun_18_1102,60.1511557535,LearningTask,1,22,
-200,a,-200,,,,,,,,,,,,,,,,,2,0,2,0,6,2,26,3,,,,,,,,,,,,,,,,,,,,,,,,,,,,,a,1,0.400645971298,None,0,0.5,hexagonmagenta.gif,go,,,,,,,,,,,,,,,,,,,,,,,,0,0.514698982239,0.000908136367798,0.400645971298,1,a,949.089406013,,,,,,,,,,,,,,,,,,,,,,,,,,,,,,,,2015_Jun_18_1102,60.1511557535,LearningTask,1,22,
200,w,200,,,,,,,,,,,,,,,,,2,0,2,0,6,3,27,0,,,,,,,,,,,,,,,,,,,,,,,,,,,,,w,1,0.384171962738,None,0,2.0,lineblue.gif,stop,,,,,,,,,,,,,,,,,,,,,,,,0,0.514662981033,0.000909805297852,0.384171962738,1,w,952.092948914,,,,,,,,,,,,,,,,,,,,,,,,,,,,,,,,2015_Jun_18_1102,60.1511557535,LearningTask,1,22,
-200,a,-200,,,,,,,,,,,,,,,,,2,0,2,0,7,0,28,3,,,,,,,,,,,,,,,,,,,,,,,,,,,,,a,1,0.367613792419,None,0,1.0,circlewhite.gif,go,,,,,,,,,,,,,,,,,,,,,,,,1.23,0.513903141022,0.00101113319397,0.367613792419,1,a,955.096168995,,,,,,,,,,,,,,,,,,,,,,,,,,,,,,,,2015_Jun_18_1102,60.1511557535,LearningTask,1,22,
200,s,-200,,,,,,,,,,,,,,,,,2,0,2,0,7,1,29,2,,,,,,,,,,,,,,,,,,,,,,,,,,,,,s,1,0.400786876678,None,0,2.0,triangleyellow.gif,go,,,,,,,,,,,,,,,,,,,,,,,,0,0.514249801636,0.000988960266113,0.400786876678,1,s,958.099630833,,,,,,,,,,,,,,,,,,,,,,,,,,,,,,,,2015_Jun_18_1102,60.1511557535,LearningTask,1,22,
-200,q,200,,,,,,,,,,,,,,,,,2,0,2,0,7,2,30,1,,,,,,,,,,,,,,,,,,,,,,,,,,,,,q,1,0.334026098251,None,0,4.0,squareorange.gif,go,,,,,,,,,,,,,,,,,,,,,,,,0,0.514203071594,0.000890016555786,0.334026098251,1,q,961.102845907,,,,,,,,,,,,,,,,,,,,,,,,,,,,,,,,2015_Jun_18_1102,60.1511557535,LearningTask,1,22,
200,s,-200,,,,,,,,,,,,,,,,,2,0,2,0,7,3,31,2,,,,,,,,,,,,,,,,,,,,,,,,,,,,,s,1,0.384234189987,None,0,4.0,diamondcyan.gif,stop,,,,,,,,,,,,,,,,,,,,,,,,4.05,0.514294862747,0.000880002975464,0.384234189987,1,s,964.106269836,,,,,,,,,,,,,,,,,,,,,,,,,,,,,,,,2015_Jun_18_1102,60.1511557535,LearningTask,1,22,
-200,a,-200,,,,,,,,,,,,,,,,,2,0,2,0,8,0,32,3,,,,,,,,,,,,,,,,,,,,,,,,,,,,,a,1,0.451185941696,None,0,1.0,crossgray.gif,stop,,,,,,,,,,,,,,,,,,,,,,,,1.05,0.514034986496,0.000931024551392,0.451185941696,1,a,967.109533787,,,,,,,,,,,,,,,,,,,,,,,,,,,,,,,,2015_Jun_18_1102,60.1511557535,LearningTask,1,22,
200,w,200,,,,,,,,,,,,,,,,,2,0,2,0,8,1,33,0,,,,,,,,,,,,,,,,,,,,,,,,,,,,,w,1,0.350775003433,None,0,1.0,crossgray.gif,stop,,,,,,,,,,,,,,,,,,,,,,,,0.8,0.51435303688,0.000880002975464,0.350775003433,1,w,970.112976789,,,,,,,,,,,,,,,,,,,,,,,,,,,,,,,,2015_Jun_18_1102,60.1511557535,LearningTask,1,22,
-200,q,200,,,,,,,,,,,,,,,,,2,0,2,0,8,2,34,1,,,,,,,,,,,,,,,,,,,,,,,,,,,,,q,1,0.400908946991,None,0,4.0,diamondcyan.gif,stop,,,,,,,,,,,,,,,,,,,,,,,,4.11,0.514334201813,0.000871181488037,0.400908946991,1,q,973.116324902,,,,,,,,,,,,,,,,,,,,,,,,,,,,,,,,2015_Jun_18_1102,60.1511557535,LearningTask,1,22,
200,w,200,,,,,,,,,,,,,,,,,2,0,2,0,8,3,35,0,,,,,,,,,,,,,,,,,,,,,,,,,,,,,w,1,0.350768089294,None,0,4.0,squareorange.gif,go,,,,,,,,,,,,,,,,,,,,,,,,3.77,0.514097929001,0.000906944274902,0.350768089294,1,w,976.1196208,,,,,,,,,,,,,,,,,,,,,,,,,,,,,,,,2015_Jun_18_1102,60.1511557535,LearningTask,1,22,
200,s,-200,,,,,,,,,,,,,,,,,2,0,2,0,9,0,36,2,,,,,,,,,,,,,,,,,,,,,,,,,,,,,s,1,0.367854118347,None,0,2.0,lineblue.gif,stop,,,,,,,,,,,,,,,,,,,,,,,,1.88,0.514433145523,0.00087308883667,0.367854118347,1,s,979.122943878,,,,,,,,,,,,,,,,,,,,,,,,,,,,,,,,2015_Jun_18_1102,60.1511557535,LearningTask,1,22,
200,w,200,,,,,,,,,,,,,,,,,2,0,2,0,9,1,37,0,,,,,,,,,,,,,,,,,,,,,,,,,,,,,w,1,0.317183017731,None,0,4.0,squareorange.gif,go,,,,,,,,,,,,,,,,,,,,,,,,3.76,0.51439499855,0.000874042510986,0.317183017731,1,w,982.12658596,,,,,,,,,,,,,,,,,,,,,,,,,,,,,,,,2015_Jun_18_1102,60.1511557535,LearningTask,1,22,
-200,a,-200,,,,,,,,,,,,,,,,,2,0,2,0,9,2,38,3,,,,,,,,,,,,,,,,,,,,,,,,,,,,,a,1,0.367505788803,None,0,1.0,crossgray.gif,stop,,,,,,,,,,,,,,,,,,,,,,,,1.08,0.513782978058,0.000874996185303,0.367505788803,1,a,985.129750013,,,,,,,,,,,,,,,,,,,,,,,,,,,,,,,,2015_Jun_18_1102,60.1511557535,LearningTask,1,22,
-200,a,-200,,,,,,,,,,,,,,,,,2,0,2,0,9,3,39,3,,,,,,,,,,,,,,,,,,,,,,,,,,,,,a,1,0.400264024734,None,0,2.0,lineblue.gif,stop,,,,,,,,,,,,,,,,,,,,,,,,1.97,0.514657020569,0.000902891159058,0.400264024734,1,a,988.133235931,,,,,,,,,,,,,,,,,,,,,,,,,,,,,,,,2015_Jun_18_1102,60.1511557535,LearningTask,1,22,
200,w,200,,,,,,,,,,,,,,,,,2,0,2,0,10,0,40,0,,,,,,,,,,,,,,,,,,,,,,,,,,,,,w,1,0.350759983063,None,0,4.0,squareorange.gif,go,,,,,,,,,,,,,,,,,,,,,,,,3.81,0.514122962952,0.000869989395142,0.350759983063,1,w,991.13684082,,,,,,,,,,,,,,,,,,,,,,,,,,,,,,,,2015_Jun_18_1102,60.1511557535,LearningTask,1,22,
200,w,200,,,,,,,,,,,,,,,,,2,0,2,0,10,1,41,0,,,,,,,,,,,,,,,,,,,,,,,,,,,,,w,1,0.400966882706,None,0,0.5,hexagonmagenta.gif,go,,,,,,,,,,,,,,,,,,,,,,,,0.48,0.513930797577,0.000902891159058,0.400966882706,1,w,994.139761925,,,,,,,,,,,,,,,,,,,,,,,,,,,,,,,,2015_Jun_18_1102,60.1511557535,LearningTask,1,22,
-200,q,200,,,,,,,,,,,,,,,,,2,0,2,0,10,2,42,1,,,,,,,,,,,,,,,,,,,,,,,,,,,,,q,1,0.400684833527,None,0,4.0,diamondcyan.gif,stop,,,,,,,,,,,,,,,,,,,,,,,,4.1,0.514369010925,0.000875949859619,0.400684833527,1,q,997.142996788,,,,,,,,,,,,,,,,,,,,,,,,,,,,,,,,2015_Jun_18_1102,60.1511557535,LearningTask,1,22,
-200,a,-200,,,,,,,,,,,,,,,,,2,0,2,0,10,3,43,3,,,,,,,,,,,,,,,,,,,,,,,,,,,,,a,1,0.384169101715,None,0,2.0,triangleyellow.gif,go,,,,,,,,,,,,,,,,,,,,,,,,0,0.514544963837,0.000880002975464,0.384169101715,1,a,1000.14659691,,,,,,,,,,,,,,,,,,,,,,,,,,,,,,,,2015_Jun_18_1102,60.1511557535,LearningTask,1,22,
-200,q,200,,,,,,,,,,,,,,,,,2,0,2,0,11,0,44,1,,,,,,,,,,,,,,,,,,,,,,,,,,,,,q,1,0.367213010788,None,0,2.0,lineblue.gif,stop,,,,,,,,,,,,,,,,,,,,,,,,1.85,0.51461315155,0.00101613998413,0.367213010788,1,q,1003.14986396,,,,,,,,,,,,,,,,,,,,,,,,,,,,,,,,2015_Jun_18_1102,60.1511557535,LearningTask,1,22,
200,w,200,,,,,,,,,,,,,,,,,2,0,2,0,11,1,45,0,,,,,,,,,,,,,,,,,,,,,,,,,,,,,w,1,0.367398023605,None,0,2.0,triangleyellow.gif,go,,,,,,,,,,,,,,,,,,,,,,,,2.13,0.514513015747,0.000954151153564,0.367398023605,1,w,1006.15329289,,,,,,,,,,,,,,,,,,,,,,,,,,,,,,,,2015_Jun_18_1102,60.1511557535,LearningTask,1,22,
-200,q,200,,,,,,,,,,,,,,,,,2,0,2,0,11,2,46,1,,,,,,,,,,,,,,,,,,,,,,,,,,,,,q,1,0.351263999939,None,0,4.0,diamondcyan.gif,stop,,,,,,,,,,,,,,,,,,,,,,,,0,0.51434803009,0.00088095664978,0.351263999939,1,q,1009.15667892,,,,,,,,,,,,,,,,,,,,,,,,,,,,,,,,2015_Jun_18_1102,60.1511557535,LearningTask,1,22,
-200,q,200,,,,,,,,,,,,,,,,,2,0,2,0,11,3,47,1,,,,,,,,,,,,,,,,,,,,,,,,,,,,,q,1,0.334618806839,None,0,4.0,diamondcyan.gif,stop,,,,,,,,,,,,,,,,,,,,,,,,4.14,0.514221906662,0.000878095626831,0.334618806839,1,q,1012.16003799,,,,,,,,,,,,,,,,,,,,,,,,,,,,,,,,2015_Jun_18_1102,60.1511557535,LearningTask,1,22,
-200,a,-200,,,,,,,,,,,,,,,,,2,0,2,0,12,0,48,3,,,,,,,,,,,,,,,,,,,,,,,,,,,,,a,1,0.384230136871,None,0,1.0,crossgray.gif,stop,,,,,,,,,,,,,,,,,,,,,,,,1.21,0.51407790184,0.000940084457397,0.384230136871,1,a,1015.16330791,,,,,,,,,,,,,,,,,,,,,,,,,,,,,,,,2015_Jun_18_1102,60.1511557535,LearningTask,1,22,
200,s,-200,,,,,,,,,,,,,,,,,2,0,2,0,12,1,49,2,,,,,,,,,,,,,,,,,,,,,,,,,,,,,s,1,0.417543888092,None,0,1.0,crossgray.gif,stop,,,,,,,,,,,,,,,,,,,,,,,,0.82,0.514126062393,0.000884056091309,0.417543888092,1,s,1018.16679597,,,,,,,,,,,,,,,,,,,,,,,,,,,,,,,,2015_Jun_18_1102,60.1511557535,LearningTask,1,22,
-200,a,-200,,,,,,,,,,,,,,,,,2,0,2,0,12,2,50,3,,,,,,,,,,,,,,,,,,,,,,,,,,,,,a,1,0.35071015358,None,0,1.0,crossgray.gif,stop,,,,,,,,,,,,,,,,,,,,,,,,0.79,0.514451980591,0.000874996185303,0.35071015358,1,a,1021.1701529,,,,,,,,,,,,,,,,,,,,,,,,,,,,,,,,2015_Jun_18_1102,60.1511557535,LearningTask,1,22,
-200,a,-200,,,,,,,,,,,,,,,,,2,0,2,0,12,3,51,3,,,,,,,,,,,,,,,,,,,,,,,,,,,,,a,1,0.350326061249,None,0,0.5,hexagonmagenta.gif,go,,,,,,,,,,,,,,,,,,,,,,,,0.34,0.514109134674,0.000892162322998,0.350326061249,1,a,1024.17339993,,,,,,,,,,,,,,,,,,,,,,,,,,,,,,,,2015_Jun_18_1102,60.1511557535,LearningTask,1,22,
-200,q,200,,,,,,,,,,,,,,,,,2,0,2,0,13,0,52,1,,,,,,,,,,,,,,,,,,,,,,,,,,,,,q,1,0.401206970215,None,0,0.5,invertedtrianglegreen.gif,stop,,,,,,,,,,,,,,,,,,,,,,,,0.46,0.514402866364,0.000887870788574,0.401206970215,1,q,1027.17687488,,,,,,,,,,,,,,,,,,,,,,,,,,,,,,,,2015_Jun_18_1102,60.1511557535,LearningTask,1,22,
-200,a,-200,,,,,,,,,,,,,,,,,2,0,2,0,13,1,53,3,,,,,,,,,,,,,,,,,,,,,,,,,,,,,a,1,0.351251125336,None,0,4.0,diamondcyan.gif,stop,,,,,,,,,,,,,,,,,,,,,,,,4.16,0.514158964157,0.000879049301147,0.351251125336,1,a,1030.18033695,,,,,,,,,,,,,,,,,,,,,,,,,,,,,,,,2015_Jun_18_1102,60.1511557535,LearningTask,1,22,
-200,q,200,,,,,,,,,,,,,,,,,2,0,2,0,13,2,54,1,,,,,,,,,,,,,,,,,,,,,,,,,,,,,q,1,0.350515842438,None,0,1.0,circlewhite.gif,go,,,,,,,,,,,,,,,,,,,,,,,,1.13,0.513868093491,0.000894069671631,0.350515842438,1,q,1033.18348885,,,,,,,,,,,,,,,,,,,,,,,,,,,,,,,,2015_Jun_18_1102,60.1511557535,LearningTask,1,22,
200,w,200,,,,,,,,,,,,,,,,,2,0,2,0,13,3,55,0,,,,,,,,,,,,,,,,,,,,,,,,,,,,,w,1,0.384212017059,None,0,0.5,invertedtrianglegreen.gif,stop,,,,,,,,,,,,,,,,,,,,,,,,0,0.514268875122,0.000897884368896,0.384212017059,1,w,1036.18687487,,,,,,,,,,,,,,,,,,,,,,,,,,,,,,,,2015_Jun_18_1102,60.1511557535,LearningTask,1,22,
-200,a,-200,,,,,,,,,,,,,,,,,2,0,2,0,14,0,56,3,,,,,,,,,,,,,,,,,,,,,,,,,,,,,a,1,0.367535114288,None,0,2.0,lineblue.gif,stop,,,,,,,,,,,,,,,,,,,,,,,,2.05,0.513916015625,0.000899076461792,0.367535114288,1,a,1039.19043183,,,,,,,,,,,,,,,,,,,,,,,,,,,,,,,,2015_Jun_18_1102,60.1511557535,LearningTask,1,22,
-200,a,-200,,,,,,,,,,,,,,,,,2,0,2,0,14,1,57,3,,,,,,,,,,,,,,,,,,,,,,,,,,,,,a,1,0.383957147598,None,0,2.0,lineblue.gif,stop,,,,,,,,,,,,,,,,,,,,,,,,2.14,0.514071941376,0.00089693069458,0.383957147598,1,a,1042.19342089,,,,,,,,,,,,,,,,,,,,,,,,,,,,,,,,2015_Jun_18_1102,60.1511557535,LearningTask,1,22,
-200,q,200,,,,,,,,,,,,,,,,,2,0,2,0,14,2,58,1,,,,,,,,,,,,,,,,,,,,,,,,,,,,,q,1,0.317203998566,None,0,0.5,invertedtrianglegreen.gif,stop,,,,,,,,,,,,,,,,,,,,,,,,0.68,0.514405965805,0.000874996185303,0.317203998566,1,q,1045.19673085,,,,,,,,,,,,,,,,,,,,,,,,,,,,,,,,2015_Jun_18_1102,60.1511557535,LearningTask,1,22,
200,w,200,,,,,,,,,,,,,,,,,2,0,2,0,14,3,59,0,,,,,,,,,,,,,,,,,,,,,,,,,,,,,w,1,0.284158945084,None,0,0.5,hexagonmagenta.gif,go,,,,,,,,,,,,,,,,,,,,,,,,0.35,0.514490127563,0.000875949859619,0.284158945084,1,w,1048.20027184,,,,,,,,,,,,,,,,,,,,,,,,,,,,,,,,2015_Jun_18_1102,60.1511557535,LearningTask,1,22,
-200,q,200,,,,,,,,,,,,,,,,,2,0,2,0,15,0,60,1,,,,,,,,,,,,,,,,,,,,,,,,,,,,,q,1,0.40051817894,None,0,0.5,invertedtrianglegreen.gif,stop,,,,,,,,,,,,,,,,,,,,,,,,0.7,0.514321088791,0.000868082046509,0.40051817894,1,q,1051.20360994,,,,,,,,,,,,,,,,,,,,,,,,,,,,,,,,2015_Jun_18_1102,60.1511557535,LearningTask,1,22,
200,w,200,,,,,,,,,,,,,,,,,2,0,2,0,15,1,61,0,,,,,,,,,,,,,,,,,,,,,,,,,,,,,w,1,0.317619085312,None,0,4.0,squareorange.gif,go,,,,,,,,,,,,,,,,,,,,,,,,4.0,0.514195919037,0.00100088119507,0.317619085312,1,w,1054.20703793,,,,,,,,,,,,,,,,,,,,,,,,,,,,,,,,2015_Jun_18_1102,60.1511557535,LearningTask,1,22,
-200,a,-200,,,,,,,,,,,,,,,,,2,0,2,0,15,2,62,3,,,,,,,,,,,,,,,,,,,,,,,,,,,,,a,1,0.334443092346,None,0,4.0,squareorange.gif,go,,,,,,,,,,,,,,,,,,,,,,,,4.07,0.514398813248,0.000869989395142,0.334443092346,1,a,1057.210325,,,,,,,,,,,,,,,,,,,,,,,,,,,,,,,,2015_Jun_18_1102,60.1511557535,LearningTask,1,22,
-200,q,200,,,,,,,,,,,,,,,,,2,0,2,0,15,3,63,1,,,,,,,,,,,,,,,,,,,,,,,,,,,,,q,1,0.351086854935,None,0,4.0,squareorange.gif,go,,,,,,,,,,,,,,,,,,,,,,,,4.0,0.514058113098,0.000871896743774,0.351086854935,1,q,1060.21366978,,,,,,,,,,,,,,,,,,,,,,,,,,,,,,,,2015_Jun_18_1102,60.1511557535,LearningTask,1,22,
200,w,200,,,,,,,,,,,,,,,,,2,0,2,0,16,0,64,0,,,,,,,,,,,,,,,,,,,,,,,,,,,,,w,1,0.351049184799,None,0,1.0,circlewhite.gif,go,,,,,,,,,,,,,,,,,,,,,,,,1.06,0.514136791229,0.00094199180603,0.351049184799,1,w,1063.21698093,,,,,,,,,,,,,,,,,,,,,,,,,,,,,,,,2015_Jun_18_1102,60.1511557535,LearningTask,1,22,
200,w,200,,,,,,,,,,,,,,,,,2,0,2,0,16,1,65,0,,,,,,,,,,,,,,,,,,,,,,,,,,,,,w,1,0.384075164795,None,0,2.0,triangleyellow.gif,go,,,,,,,,,,,,,,,,,,,,,,,,2.2,0.51448392868,0.000879049301147,0.384075164795,1,w,1066.22042394,,,,,,,,,,,,,,,,,,,,,,,,,,,,,,,,2015_Jun_18_1102,60.1511557535,LearningTask,1,22,
-200,q,200,,,,,,,,,,,,,,,,,2,0,2,0,16,2,66,1,,,,,,,,,,,,,,,,,,,,,,,,,,,,,q,1,0.333943128586,None,0,4.0,diamondcyan.gif,stop,,,,,,,,,,,,,,,,,,,,,,,,4.02,0.514537096024,0.000874042510986,0.333943128586,1,q,1069.2237978,,,,,,,,,,,,,,,,,,,,,,,,,,,,,,,,2015_Jun_18_1102,60.1511557535,LearningTask,1,22,
200,s,-200,,,,,,,,,,,,,,,,,2,0,2,0,16,3,67,2,,,,,,,,,,,,,,,,,,,,,,,,,,,,,s,1,0.384093999863,None,0,4.0,diamondcyan.gif,stop,,,,,,,,,,,,,,,,,,,,,,,,0,0.514147996902,0.000922203063965,0.384093999863,1,s,1072.22707081,,,,,,,,,,,,,,,,,,,,,,,,,,,,,,,,2015_Jun_18_1102,60.1511557535,LearningTask,1,22,
200,s,-200,,,,,,,,,,,,,,,,,2,0,2,0,17,0,68,2,,,,,,,,,,,,,,,,,,,,,,,,,,,,,s,1,0.383995056152,None,0,1.0,crossgray.gif,stop,,,,,,,,,,,,,,,,,,,,,,,,0,0.514386892319,0.000883817672729,0.383995056152,1,s,1075.2306118,,,,,,,,,,,,,,,,,,,,,,,,,,,,,,,,2015_Jun_18_1102,60.1511557535,LearningTask,1,22,
200,s,-200,,,,,,,,,,,,,,,,,2,0,2,0,17,1,69,2,,,,,,,,,,,,,,,,,,,,,,,,,,,,,s,1,0.351205825806,None,0,4.0,squareorange.gif,go,,,,,,,,,,,,,,,,,,,,,,,,4.09,0.514115810394,0.000874996185303,0.351205825806,1,s,1078.23399901,,,,,,,,,,,,,,,,,,,,,,,,,,,,,,,,2015_Jun_18_1102,60.1511557535,LearningTask,1,22,
200,s,-200,,,,,,,,,,,,,,,,,2,0,2,0,17,2,70,2,,,,,,,,,,,,,,,,,,,,,,,,,,,,,s,1,0.384026050568,None,0,2.0,triangleyellow.gif,go,,,,,,,,,,,,,,,,,,,,,,,,2.14,0.513731956482,0.000900030136108,0.384026050568,1,s,1081.23719978,,,,,,,,,,,,,,,,,,,,,,,,,,,,,,,,2015_Jun_18_1102,60.1511557535,LearningTask,1,22,
200,s,-200,,,,,,,,,,,,,,,,,2,0,2,0,17,3,71,2,,,,,,,,,,,,,,,,,,,,,,,,,,,,,s,1,0.384356975555,None,0,1.0,circlewhite.gif,go,,,,,,,,,,,,,,,,,,,,,,,,0.75,0.514167070389,0.000874996185303,0.384356975555,1,s,1084.24065089,,,,,,,,,,,,,,,,,,,,,,,,,,,,,,,,2015_Jun_18_1102,60.1511557535,LearningTask,1,22,
-200,q,200,,,,,,,,,,,,,,,,,2,0,2,0,18,0,72,1,,,,,,,,,,,,,,,,,,,,,,,,,,,,,q,1,0.417469024658,None,0,0.5,hexagonmagenta.gif,go,,,,,,,,,,,,,,,,,,,,,,,,0.63,0.514506101608,0.000874042510986,0.417469024658,1,q,1087.24429297,,,,,,,,,,,,,,,,,,,,,,,,,,,,,,,,2015_Jun_18_1102,60.1511557535,LearningTask,1,22,
200,s,-200,,,,,,,,,,,,,,,,,2,0,2,0,18,1,73,2,,,,,,,,,,,,,,,,,,,,,,,,,,,,,s,1,0.334105968475,None,0,4.0,squareorange.gif,go,,,,,,,,,,,,,,,,,,,,,,,,4.0,0.513612985611,0.000872850418091,0.334105968475,1,s,1090.24718785,,,,,,,,,,,,,,,,,,,,,,,,,,,,,,,,2015_Jun_18_1102,60.1511557535,LearningTask,1,22,
200,w,200,,,,,,,,,,,,,,,,,2,0,2,0,18,2,74,0,,,,,,,,,,,,,,,,,,,,,,,,,,,,,w,1,0.334007024765,None,0,0.5,hexagonmagenta.gif,go,,,,,,,,,,,,,,,,,,,,,,,,0,0.514276981354,0.00093412399292,0.334007024765,1,w,1093.25040793,,,,,,,,,,,,,,,,,,,,,,,,,,,,,,,,2015_Jun_18_1102,60.1511557535,LearningTask,1,22,
200,s,-200,,,,,,,,,,,,,,,,,2,0,2,0,18,3,75,2,,,,,,,,,,,,,,,,,,,,,,,,,,,,,s,1,0.351090192795,None,0,4.0,squareorange.gif,go,,,,,,,,,,,,,,,,,,,,,,,,4.16,0.514498949051,0.000894069671631,0.351090192795,1,s,1096.25398993,,,,,,,,,,,,,,,,,,,,,,,,,,,,,,,,2015_Jun_18_1102,60.1511557535,LearningTask,1,22,
200,w,200,,,,,,,,,,,,,,,,,2,0,2,0,19,0,76,0,,,,,,,,,,,,,,,,,,,,,,,,,,,,,w,1,0.384495019913,None,0,2.0,lineblue.gif,stop,,,,,,,,,,,,,,,,,,,,,,,,0,0.514024019241,0.000899076461792,0.384495019913,1,w,1099.25739598,,,,,,,,,,,,,,,,,,,,,,,,,,,,,,,,2015_Jun_18_1102,60.1511557535,LearningTask,1,22,
200,s,-200,,,,,,,,,,,,,,,,,2,0,2,0,19,1,77,2,,,,,,,,,,,,,,,,,,,,,,,,,,,,,s,1,0.350994110107,None,0,4.0,squareorange.gif,go,,,,,,,,,,,,,,,,,,,,,,,,4.13,0.514053106308,0.00103902816772,0.350994110107,1,s,1102.26067901,,,,,,,,,,,,,,,,,,,,,,,,,,,,,,,,2015_Jun_18_1102,60.1511557535,LearningTask,1,22,
200,w,200,,,,,,,,,,,,,,,,,2,0,2,0,19,2,78,0,,,,,,,,,,,,,,,,,,,,,,,,,,,,,w,1,0.383988857269,None,0,1.0,crossgray.gif,stop,,,,,,,,,,,,,,,,,,,,,,,,1.06,0.514620065689,0.000874996185303,0.383988857269,1,w,1105.26409388,,,,,,,,,,,,,,,,,,,,,,,,,,,,,,,,2015_Jun_18_1102,60.1511557535,LearningTask,1,22,
200,s,-200,,,,,,,,,,,,,,,,,2,0,2,0,19,3,79,2,,,,,,,,,,,,,,,,,,,,,,,,,,,,,s,1,0.350913047791,None,0,2.0,lineblue.gif,stop,,,,,,,,,,,,,,,,,,,,,,,,0,0.514168024063,0.00114488601685,0.350913047791,1,s,1108.26728988,,,,,,,,,,,,,,,,,,,,,,,,,,,,,,,,2015_Jun_18_1102,60.1511557535,LearningTask,1,22,
-200,q,200,,,,,,,,,,,,,,,,,2,0,2,0,20,0,80,1,,,,,,,,,,,,,,,,,,,,,,,,,,,,,q,1,0.367249011993,None,0,1.0,circlewhite.gif,go,,,,,,,,,,,,,,,,,,,,,,,,0,0.514015197754,0.000936031341553,0.367249011993,1,q,1111.270823,,,,,,,,,,,,,,,,,,,,,,,,,,,,,,,,2015_Jun_18_1102,60.1511557535,LearningTask,1,22,
-200,a,-200,,,,,,,,,,,,,,,,,2,0,2,0,20,1,81,3,,,,,,,,,,,,,,,,,,,,,,,,,,,,,a,1,0.351118087769,None,0,4.0,squareorange.gif,go,,,,,,,,,,,,,,,,,,,,,,,,4.12,0.514382123947,0.000866174697876,0.351118087769,1,a,1114.274194,,,,,,,,,,,,,,,,,,,,,,,,,,,,,,,,2015_Jun_18_1102,60.1511557535,LearningTask,1,22,
200,s,-200,,,,,,,,,,,,,,,,,2,0,2,0,20,2,82,2,,,,,,,,,,,,,,,,,,,,,,,,,,,,,s,1,0.333739042282,None,0,4.0,diamondcyan.gif,stop,,,,,,,,,,,,,,,,,,,,,,,,3.78,0.514507055283,0.000874996185303,0.333739042282,1,s,1117.27736878,,,,,,,,,,,,,,,,,,,,,,,,,,,,,,,,2015_Jun_18_1102,60.1511557535,LearningTask,1,22,
-200,q,200,,,,,,,,,,,,,,,,,2,0,2,0,20,3,83,1,,,,,,,,,,,,,,,,,,,,,,,,,,,,,q,1,0.400505065918,None,0,2.0,lineblue.gif,stop,,,,,,,,,,,,,,,,,,,,,,,,1.92,0.514461040497,0.00089693069458,0.400505065918,1,q,1120.28070998,,,,,,,,,,,,,,,,,,,,,,,,,,,,,,,,2015_Jun_18_1102,60.1511557535,LearningTask,1,22,
200,w,200,,,,,,,,,,,,,,,,,2,0,2,0,21,0,84,0,,,,,,,,,,,,,,,,,,,,,,,,,,,,,w,1,0.467023849487,None,0,4.0,diamondcyan.gif,stop,,,,,,,,,,,,,,,,,,,,,,,,4.09,0.514506101608,0.000875949859619,0.467023849487,1,w,1123.28465486,,,,,,,,,,,,,,,,,,,,,,,,,,,,,,,,2015_Jun_18_1102,60.1511557535,LearningTask,1,22,
200,w,200,,,,,,,,,,,,,,,,,2,0,2,0,21,1,85,0,,,,,,,,,,,,,,,,,,,,,,,,,,,,,w,1,0.351363182068,None,0,4.0,diamondcyan.gif,stop,,,,,,,,,,,,,,,,,,,,,,,,0,0.513659000397,0.000915050506592,0.351363182068,1,w,1126.28772593,,,,,,,,,,,,,,,,,,,,,,,,,,,,,,,,2015_Jun_18_1102,60.1511557535,LearningTask,1,22,
-200,a,-200,,,,,,,,,,,,,,,,,2,0,2,0,21,2,86,3,,,,,,,,,,,,,,,,,,,,,,,,,,,,,a,1,0.41800403595,None,0,2.0,triangleyellow.gif,go,,,,,,,,,,,,,,,,,,,,,,,,1.89,0.514054059982,0.000880002975464,0.41800403595,1,a,1129.29078078,,,,,,,,,,,,,,,,,,,,,,,,,,,,,,,,2015_Jun_18_1102,60.1511557535,LearningTask,1,22,
200,w,200,,,,,,,,,,,,,,,,,2,0,2,0,21,3,87,0,,,,,,,,,,,,,,,,,,,,,,,,,,,,,w,1,0.367467880249,None,0,1.0,circlewhite.gif,go,,,,,,,,,,,,,,,,,,,,,,,,1.18,0.514266014099,0.000900030136108,0.367467880249,1,w,1132.29415083,,,,,,,,,,,,,,,,,,,,,,,,,,,,,,,,2015_Jun_18_1102,60.1511557535,LearningTask,1,22,
-200,a,-200,,,,,,,,,,,,,,,,,2,0,2,0,22,0,88,3,,,,,,,,,,,,,,,,,,,,,,,,,,,,,a,1,0.367192983627,None,0,4.0,diamondcyan.gif,stop,,,,,,,,,,,,,,,,,,,,,,,,3.76,0.514564037323,0.00088095664978,0.367192983627,1,a,1135.29791498,,,,,,,,,,,,,,,,,,,,,,,,,,,,,,,,2015_Jun_18_1102,60.1511557535,LearningTask,1,22,
-200,a,-200,,,,,,,,,,,,,,,,,2,0,2,0,22,1,89,3,,,,,,,,,,,,,,,,,,,,,,,,,,,,,a,1,0.350610971451,None,0,4.0,squareorange.gif,go,,,,,,,,,,,,,,,,,,,,,,,,3.95,0.514117956161,0.000868082046509,0.350610971451,1,a,1138.30087495,,,,,,,,,,,,,,,,,,,,,,,,,,,,,,,,2015_Jun_18_1102,60.1511557535,LearningTask,1,22,
200,w,200,,,,,,,,,,,,,,,,,2,0,2,0,22,2,90,0,,,,,,,,,,,,,,,,,,,,,,,,,,,,,w,1,0.367879152298,None,0,2.0,triangleyellow.gif,go,,,,,,,,,,,,,,,,,,,,,,,,2.08,0.514430046082,0.00123715400696,0.367879152298,1,w,1141.30418587,,,,,,,,,,,,,,,,,,,,,,,,,,,,,,,,2015_Jun_18_1102,60.1511557535,LearningTask,1,22,
200,s,-200,,,,,,,,,,,,,,,,,2,0,2,0,22,3,91,2,,,,,,,,,,,,,,,,,,,,,,,,,,,,,s,1,0.367629051208,None,0,1.0,crossgray.gif,stop,,,,,,,,,,,,,,,,,,,,,,,,0.92,0.514361858368,0.000877857208252,0.367629051208,1,s,1144.30764294,,,,,,,,,,,,,,,,,,,,,,,,,,,,,,,,2015_Jun_18_1102,60.1511557535,LearningTask,1,22,
200,s,-200,,,,,,,,,,,,,,,,,2,0,2,0,23,0,92,2,,,,,,,,,,,,,,,,,,,,,,,,,,,,,s,1,0.350628137589,None,0,0.5,hexagonmagenta.gif,go,,,,,,,,,,,,,,,,,,,,,,,,0,0.514331102371,0.000881195068359,0.350628137589,1,s,1147.31095195,,,,,,,,,,,,,,,,,,,,,,,,,,,,,,,,2015_Jun_18_1102,60.1511557535,LearningTask,1,22,
200,s,-200,,,,,,,,,,,,,,,,,2,0,2,0,23,1,93,2,,,,,,,,,,,,,,,,,,,,,,,,,,,,,s,1,0.367416858673,None,0,4.0,diamondcyan.gif,stop,,,,,,,,,,,,,,,,,,,,,,,,3.95,0.514285802841,0.00101900100708,0.367416858673,1,s,1150.31444001,,,,,,,,,,,,,,,,,,,,,,,,,,,,,,,,2015_Jun_18_1102,60.1511557535,LearningTask,1,22,
-200,q,200,,,,,,,,,,,,,,,,,2,0,2,0,23,2,94,1,,,,,,,,,,,,,,,,,,,,,,,,,,,,,q,1,0.41771697998,None,0,2.0,lineblue.gif,stop,,,,,,,,,,,,,,,,,,,,,,,,1.97,0.514187097549,0.00087308883667,0.41771697998,1,q,1153.31762695,,,,,,,,,,,,,,,,,,,,,,,,,,,,,,,,2015_Jun_18_1102,60.1511557535,LearningTask,1,22,
200,s,-200,,,,,,,,,,,,,,,,,2,0,2,0,23,3,95,2,,,,,,,,,,,,,,,,,,,,,,,,,,,,,s,1,0.317966938019,None,0,1.0,circlewhite.gif,go,,,,,,,,,,,,,,,,,,,,,,,,1.13,0.514344930649,0.000874996185303,0.317966938019,1,s,1156.32098079,,,,,,,,,,,,,,,,,,,,,,,,,,,,,,,,2015_Jun_18_1102,60.1511557535,LearningTask,1,22,
200,s,-200,,,,,,,,,,,,,,,,,2,0,2,0,24,0,96,2,,,,,,,,,,,,,,,,,,,,,,,,,,,,,s,1,0.36786699295,None,0,0.5,invertedtrianglegreen.gif,stop,,,,,,,,,,,,,,,,,,,,,,,,0.27,0.5141248703,0.000910997390747,0.36786699295,1,s,1159.32460093,,,,,,,,,,,,,,,,,,,,,,,,,,,,,,,,2015_Jun_18_1102,60.1511557535,LearningTask,1,22,
-200,a,-200,,,,,,,,,,,,,,,,,2,0,2,0,24,1,97,3,,,,,,,,,,,,,,,,,,,,,,,,,,,,,a,1,0.384010791779,None,0,1.0,crossgray.gif,stop,,,,,,,,,,,,,,,,,,,,,,,,1.0,0.514138936996,0.000885009765625,0.384010791779,1,a,1162.32785583,,,,,,,,,,,,,,,,,,,,,,,,,,,,,,,,2015_Jun_18_1102,60.1511557535,LearningTask,1,22,
200,w,200,,,,,,,,,,,,,,,,,2,0,2,0,24,2,98,0,,,,,,,,,,,,,,,,,,,,,,,,,,,,,w,1,0.351307153702,None,0,0.5,hexagonmagenta.gif,go,,,,,,,,,,,,,,,,,,,,,,,,0.52,0.514090061188,0.000891208648682,0.351307153702,1,w,1165.33116293,,,,,,,,,,,,,,,,,,,,,,,,,,,,,,,,2015_Jun_18_1102,60.1511557535,LearningTask,1,22,
-200,q,200,,,,,,,,,,,,,,,,,2,0,2,0,24,3,99,1,,,,,,,,,,,,,,,,,,,,,,,,,,,,,q,1,0.417237043381,None,0,4.0,squareorange.gif,go,,,,,,,,,,,,,,,,,,,,,,,,0,0.514410972595,0.000878095626831,0.417237043381,1,q,1168.33437896,,,,,,,,,,,,,,,,,,,,,,,,,,,,,,,,2015_Jun_18_1102,60.1511557535,LearningTask,1,22,
,,,,,,,,,,,,,,,,,,,2,0,2,0,,,,,,,,,,,,,,,,,,,,,,,,,,,,,,,,,,,,,,,,,,,,,,,,,,,,,,,,,,,,,,,,,,,,,,,9,26.9543800354,,,,,,,,,,,,,,,,,,,,,,,,,,,,,,2015_Jun_18_1102,60.1511557535,LearningTask,1,22,
-200,a,-200,,,,,,,,,,,,,,,,,3,0,3,0,0,0,0,3,,,,,,,,,,,,,,,,,,,,,,,,,,,,,a,1,0.367634773254,None,0,1.0,circlewhite.gif,go,,,,,,,,,,,,,,,,,,,,,,,,0.85,0.509891986847,0.000878095626831,0.367634773254,1,a,1199.01924801,,,,,,,,,,,,,,,,,,,,,,,,,,,,,,,,2015_Jun_18_1102,60.1511557535,LearningTask,1,22,
-200,a,-200,,,,,,,,,,,,,,,,,3,0,3,0,0,1,1,3,,,,,,,,,,,,,,,,,,,,,,,,,,,,,a,1,0.418055057526,None,0,2.0,lineblue.gif,stop,,,,,,,,,,,,,,,,,,,,,,,,0,0.513648986816,0.000878095626831,0.418055057526,1,a,1202.02220392,,,,,,,,,,,,,,,,,,,,,,,,,,,,,,,,2015_Jun_18_1102,60.1511557535,LearningTask,1,22,
-200,a,-200,,,,,,,,,,,,,,,,,3,0,3,0,0,2,2,3,,,,,,,,,,,,,,,,,,,,,,,,,,,,,a,1,0.350906848907,None,0,4.0,diamondcyan.gif,stop,,,,,,,,,,,,,,,,,,,,,,,,3.85,0.514161109924,0.00087308883667,0.350906848907,1,a,1205.0255909,,,,,,,,,,,,,,,,,,,,,,,,,,,,,,,,2015_Jun_18_1102,60.1511557535,LearningTask,1,22,
-200,q,200,,,,,,,,,,,,,,,,,3,0,3,0,0,3,3,1,,,,,,,,,,,,,,,,,,,,,,,,,,,,,q,1,0.383755922318,None,0,1.0,crossgray.gif,stop,,,,,,,,,,,,,,,,,,,,,,,,1.12,0.514271974564,0.000922918319702,0.383755922318,1,q,1208.02884984,,,,,,,,,,,,,,,,,,,,,,,,,,,,,,,,2015_Jun_18_1102,60.1511557535,LearningTask,1,22,
