xPos,corrAns,yPos,corrGoResp,yPosGoStim,xPosGoStim,pracTrials.thisRepN,pracTrials.thisTrialN,pracTrials.thisN,pracTrials.thisIndex,ReDoLoopPrac.thisRepN,ReDoLoopPrac.thisTrialN,ReDoLoopPrac.thisN,ReDoLoopPrac.thisIndex,ReDoLoopPrac.thisTrial,pracStopTrials.thisRepN,pracStopTrials.thisTrialN,pracStopTrials.thisN,pracStopTrials.thisIndex,Blocks.thisRepN,Blocks.thisTrialN,Blocks.thisN,Blocks.thisIndex,trials.thisRepN,trials.thisTrialN,trials.thisN,trials.thisIndex,ReDoLoopMain.thisRepN,ReDoLoopMain.thisTrialN,ReDoLoopMain.thisN,ReDoLoopMain.thisIndex,ReDoLoopMain.thisTrial,StopBlocks.thisRepN,StopBlocks.thisTrialN,StopBlocks.thisN,StopBlocks.thisIndex,StopBlocks.thisTrial,StopTrials.thisRepN,StopTrials.thisTrialN,StopTrials.thisN,StopTrials.thisIndex,ok1.keys,ok1.rt,resp.keys,resp.corr,resp.rt,beginningSSD,trialType,goStim,goResp.keys,goResp.corr,goResp.rt,goTrailCountOutput,goCumRTOutput,goRTCountOutput,stopTrialCountOutput,stopSuccessCountOutput,omissionCountOutput,commissionCountOutput,key_resp_3.keys,key_resp_3.rt,computedRewardOutput,expName,gender (m/f),age,frameRate,session,date,participant,
,,,,,,,,,,,,,,,,,,,,,,,,,,,,,,,,,,,,,,,,,space,9.05144500732,,,,,,,,,,,,,,,,,,,,LearningTask,,,59.9197413666,3,2015_Apr_10_1414,2,
200,w,200,,,,0,0,0,0,,,,,,,,,,,,,,,,,,,,,,,,,,,,,,,,,,w,1,0.3010160923,,,,,,,,,,,,,,,,,LearningTask,,,59.9197413666,3,2015_Apr_10_1414,2,
200,s,-200,,,,0,1,1,6,,,,,,,,,,,,,,,,,,,,,,,,,,,,,,,,,,s,1,0.33434510231,,,,,,,,,,,,,,,,,LearningTask,,,59.9197413666,3,2015_Apr_10_1414,2,
-200,q,200,,,,0,2,2,9,,,,,,,,,,,,,,,,,,,,,,,,,,,,,,,,,,q,1,0.300925970078,,,,,,,,,,,,,,,,,LearningTask,,,59.9197413666,3,2015_Apr_10_1414,2,
-200,q,200,,,,0,3,3,5,,,,,,,,,,,,,,,,,,,,,,,,,,,,,,,,,,q,1,0.350941896439,,,,,,,,,,,,,,,,,LearningTask,,,59.9197413666,3,2015_Apr_10_1414,2,
-200,q,200,,,,0,4,4,1,,,,,,,,,,,,,,,,,,,,,,,,,,,,,,,,,,q,1,0.384020090103,,,,,,,,,,,,,,,,,LearningTask,,,59.9197413666,3,2015_Apr_10_1414,2,
-200,a,-200,,,,0,5,5,3,,,,,,,,,,,,,,,,,,,,,,,,,,,,,,,,,,a,1,0.350399971008,,,,,,,,,,,,,,,,,LearningTask,,,59.9197413666,3,2015_Apr_10_1414,2,
200,w,200,,,,0,6,6,4,,,,,,,,,,,,,,,,,,,,,,,,,,,,,,,,,,w,1,0.250928878784,,,,,,,,,,,,,,,,,LearningTask,,,59.9197413666,3,2015_Apr_10_1414,2,
200,s,-200,,,,0,7,7,2,,,,,,,,,,,,,,,,,,,,,,,,,,,,,,,,,,s,1,0.26721405983,,,,,,,,,,,,,,,,,LearningTask,,,59.9197413666,3,2015_Apr_10_1414,2,
200,w,200,,,,0,8,8,8,,,,,,,,,,,,,,,,,,,,,,,,,,,,,,,,,,w,1,0.283935070038,,,,,,,,,,,,,,,,,LearningTask,,,59.9197413666,3,2015_Apr_10_1414,2,
-200,a,-200,,,,0,9,9,7,,,,,,,,,,,,,,,,,,,,,,,,,,,,,,,,,,a,1,0.350988864899,,,,,,,,,,,,,,,,,LearningTask,,,59.9197413666,3,2015_Apr_10_1414,2,
,,,z,0,-200,,,,,,,,,,0,0,0,0,,,,,,,,,,,,,,,,,,,,,,,,,,,,-1,go,hexagonorange.gif,z,1,0.334374904633,1,0.334374904633,1,0,0,0,0,,,,LearningTask,,,59.9197413666,3,2015_Apr_10_1414,2,
,,,m,0,200,,,,,,,,,,0,1,1,1,,,,,,,,,,,,,,,,,,,,,,,,,,,,-1,go,circlegray.gif,m,1,0.367449045181,2,0.701823949814,2,0,0,0,0,,,,LearningTask,,,59.9197413666,3,2015_Apr_10_1414,2,
,,,m,0,200,,,,,,,,,,1,0,2,1,,,,,,,,,,,,,,,,,,,,,,,,,,,,0.25,stop,diamondblue.gif,m,1,0.400578975677,2,0.701823949814,2,1,0,0,0,,,,LearningTask,,,59.9197413666,3,2015_Apr_10_1414,2,
,,,z,0,-200,,,,,,,,,,1,1,3,0,,,,,,,,,,,,,,,,,,,,,,,,,,,,-1,go,invertedtrianglegreen.gif,z,1,0.350808143616,3,1.05263209343,3,1,0,0,0,,,,LearningTask,,,59.9197413666,3,2015_Apr_10_1414,2,
,,,z,0,-200,,,,,,,,,,2,0,4,0,,,,,,,,,,,,,,,,,,,,,,,,,,,,0.25,stop,crossmagenta.gif,z,1,0.400822877884,3,1.05263209343,3,2,0,0,0,,,,LearningTask,,,59.9197413666,3,2015_Apr_10_1414,2,
,,,m,0,200,,,,,,,,,,2,1,5,1,,,,,,,,,,,,,,,,,,,,,,,,,,,,-1,go,trianglecyan.gif,m,1,0.284358978271,4,1.3369910717,4,2,0,0,0,,,,LearningTask,,,59.9197413666,3,2015_Apr_10_1414,2,
,,,m,0,200,,,,,,,,,,3,0,6,1,,,,,,,,,,,,,,,,,,,,,,,,,,,,-1,go,hexagonorange.gif,m,1,0.317458868027,5,1.65444993973,5,2,0,0,0,,,,LearningTask,,,59.9197413666,3,2015_Apr_10_1414,2,
,,,z,0,-200,,,,,,,,,,3,1,7,0,,,,,,,,,,,,,,,,,,,,,,,,,,,,0.25,stop,lineyellow.gif,z,1,0.267539024353,5,1.65444993973,5,3,0,0,0,,,,LearningTask,,,59.9197413666,3,2015_Apr_10_1414,2,
,,,m,0,200,,,,,,,,,,4,0,8,1,,,,,,,,,,,,,,,,,,,,,,,,,,,,0.25,stop,invertedtrianglegreen.gif,m,1,0.25036907196,5,1.65444993973,5,4,0,0,0,,,,LearningTask,,,59.9197413666,3,2015_Apr_10_1414,2,
,,,z,0,-200,,,,,,,,,,4,1,9,0,,,,,,,,,,,,,,,,,,,,,,,,,,,,-1,go,squarewhite.gif,z,1,0.334231138229,6,1.98868107796,6,4,0,0,0,,,,LearningTask,,,59.9197413666,3,2015_Apr_10_1414,2,
,,,,,,,,,,,,,,,,,,,,,,,,,,,,,,,,,,,,,,,,,,,,,,,,,,,,,,,,,,,space,38.8590300083,,LearningTask,,,59.9197413666,3,2015_Apr_10_1414,2,
,,,,,,,,,,,,,,,,,,,,,,,,,,,,,,,,,,,,,,,,,space,1.11663818359,,,,,,,,,,,,,,,,,,,,LearningTask,,,59.9197413666,3,2015_Apr_10_1414,2,
200,w,200,,,,,,,,,,,,,,,,,0,0,0,0,0,0,0,0,,,,,,,,,,,,,,,,,w,1,0.317493200302,,,,,,,,,,,,,,,,1.14,LearningTask,,,59.9197413666,3,2015_Apr_10_1414,2,
200,s,-200,,,,,,,,,,,,,,,,,0,0,0,0,0,1,1,2,,,,,,,,,,,,,,,,,s,1,0.317476034164,,,,,,,,,,,,,,,,1.16,LearningTask,,,59.9197413666,3,2015_Apr_10_1414,2,
200,w,200,,,,,,,,,,,,,,,,,0,0,0,0,0,2,2,0,,,,,,,,,,,,,,,,,w,1,0.367454767227,,,,,,,,,,,,,,,,1.09,LearningTask,,,59.9197413666,3,2015_Apr_10_1414,2,
-200,q,200,,,,,,,,,,,,,,,,,0,0,0,0,0,3,3,1,,,,,,,,,,,,,,,,,q,1,0.28431892395,,,,,,,,,,,,,,,,3.98,LearningTask,,,59.9197413666,3,2015_Apr_10_1414,2,
-200,q,200,,,,,,,,,,,,,,,,,0,0,0,0,1,0,4,1,,,,,,,,,,,,,,,,,q,1,0.350826025009,,,,,,,,,,,,,,,,1.17,LearningTask,,,59.9197413666,3,2015_Apr_10_1414,2,
200,w,200,,,,,,,,,,,,,,,,,0,0,0,0,1,1,5,0,,,,,,,,,,,,,,,,,w,1,0.250501155853,,,,,,,,,,,,,,,,0.9,LearningTask,,,59.9197413666,3,2015_Apr_10_1414,2,
200,w,200,,,,,,,,,,,,,,,,,0,0,0,0,1,2,6,0,,,,,,,,,,,,,,,,,w,1,0.36755490303,,,,,,,,,,,,,,,,4.23,LearningTask,,,59.9197413666,3,2015_Apr_10_1414,2,
200,s,-200,,,,,,,,,,,,,,,,,0,0,0,0,1,3,7,2,,,,,,,,,,,,,,,,,s,1,0.317374944687,,,,,,,,,,,,,,,,1.77,LearningTask,,,59.9197413666,3,2015_Apr_10_1414,2,
-200,q,200,,,,,,,,,,,,,,,,,0,0,0,0,2,0,8,1,,,,,,,,,,,,,,,,,q,1,0.300812005997,,,,,,,,,,,,,,,,2.14,LearningTask,,,59.9197413666,3,2015_Apr_10_1414,2,
200,s,-200,,,,,,,,,,,,,,,,,0,0,0,0,2,1,9,2,,,,,,,,,,,,,,,,,s,1,0.334187030792,,,,,,,,,,,,,,,,1.05,LearningTask,,,59.9197413666,3,2015_Apr_10_1414,2,
-200,q,200,,,,,,,,,,,,,,,,,0,0,0,0,2,2,10,1,,,,,,,,,,,,,,,,,q,1,0.350736856461,,,,,,,,,,,,,,,,0.37,LearningTask,,,59.9197413666,3,2015_Apr_10_1414,2,
-200,a,-200,,,,,,,,,,,,,,,,,0,0,0,0,2,3,11,3,,,,,,,,,,,,,,,,,a,1,0.333970069885,,,,,,,,,,,,,,,,3.91,LearningTask,,,59.9197413666,3,2015_Apr_10_1414,2,
-200,a,-200,,,,,,,,,,,,,,,,,0,0,0,0,3,0,12,3,,,,,,,,,,,,,,,,,a,1,0.334167957306,,,,,,,,,,,,,,,,2.17,LearningTask,,,59.9197413666,3,2015_Apr_10_1414,2,
200,w,200,,,,,,,,,,,,,,,,,0,0,0,0,3,1,13,0,,,,,,,,,,,,,,,,,w,1,0.352471113205,,,,,,,,,,,,,,,,0.52,LearningTask,,,59.9197413666,3,2015_Apr_10_1414,2,
-200,a,-200,,,,,,,,,,,,,,,,,0,0,0,0,3,2,14,3,,,,,,,,,,,,,,,,,a,1,0.40070605278,,,,,,,,,,,,,,,,4.1,LearningTask,,,59.9197413666,3,2015_Apr_10_1414,2,
200,w,200,,,,,,,,,,,,,,,,,0,0,0,0,3,3,15,0,,,,,,,,,,,,,,,,,w,1,0.367327928543,,,,,,,,,,,,,,,,3.75,LearningTask,,,59.9197413666,3,2015_Apr_10_1414,2,
-200,a,-200,,,,,,,,,,,,,,,,,0,0,0,0,4,0,16,3,,,,,,,,,,,,,,,,,a,1,0.267463922501,,,,,,,,,,,,,,,,1.19,LearningTask,,,59.9197413666,3,2015_Apr_10_1414,2,
200,w,200,,,,,,,,,,,,,,,,,0,0,0,0,4,1,17,0,,,,,,,,,,,,,,,,,w,1,0.300801038742,,,,,,,,,,,,,,,,1.24,LearningTask,,,59.9197413666,3,2015_Apr_10_1414,2,
200,w,200,,,,,,,,,,,,,,,,,0,0,0,0,4,2,18,0,,,,,,,,,,,,,,,,,w,1,0.400840997696,,,,,,,,,,,,,,,,4.05,LearningTask,,,59.9197413666,3,2015_Apr_10_1414,2,
-200,a,-200,,,,,,,,,,,,,,,,,0,0,0,0,4,3,19,3,,,,,,,,,,,,,,,,,a,1,0.18407702446,,,,,,,,,,,,,,,,4.05,LearningTask,,,59.9197413666,3,2015_Apr_10_1414,2,
200,s,-200,,,,,,,,,,,,,,,,,0,0,0,0,5,0,20,2,,,,,,,,,,,,,,,,,s,1,0.38414311409,,,,,,,,,,,,,,,,0.45,LearningTask,,,59.9197413666,3,2015_Apr_10_1414,2,
200,s,-200,,,,,,,,,,,,,,,,,0,0,0,0,5,1,21,2,,,,,,,,,,,,,,,,,s,1,0.334064006805,,,,,,,,,,,,,,,,0.75,LearningTask,,,59.9197413666,3,2015_Apr_10_1414,2,
200,w,200,,,,,,,,,,,,,,,,,0,0,0,0,5,2,22,0,,,,,,,,,,,,,,,,,w,1,0.334115982056,,,,,,,,,,,,,,,,3.8,LearningTask,,,59.9197413666,3,2015_Apr_10_1414,2,
-200,q,200,,,,,,,,,,,,,,,,,0,0,0,0,5,3,23,1,,,,,,,,,,,,,,,,,q,1,0.334174871445,,,,,,,,,,,,,,,,3.81,LearningTask,,,59.9197413666,3,2015_Apr_10_1414,2,
200,w,200,,,,,,,,,,,,,,,,,0,0,0,0,6,0,24,0,,,,,,,,,,,,,,,,,w,1,0.333571910858,,,,,,,,,,,,,,,,3.88,LearningTask,,,59.9197413666,3,2015_Apr_10_1414,2,
200,w,200,,,,,,,,,,,,,,,,,0,0,0,0,6,1,25,0,,,,,,,,,,,,,,,,,w,1,0.300849199295,,,,,,,,,,,,,,,,0.45,LearningTask,,,59.9197413666,3,2015_Apr_10_1414,2,
-200,a,-200,,,,,,,,,,,,,,,,,0,0,0,0,6,2,26,3,,,,,,,,,,,,,,,,,a,1,0.350661993027,,,,,,,,,,,,,,,,4.03,LearningTask,,,59.9197413666,3,2015_Apr_10_1414,2,
200,w,200,,,,,,,,,,,,,,,,,0,0,0,0,6,3,27,0,,,,,,,,,,,,,,,,,w,1,0.350802898407,,,,,,,,,,,,,,,,0.51,LearningTask,,,59.9197413666,3,2015_Apr_10_1414,2,
200,w,200,,,,,,,,,,,,,,,,,0,0,0,0,7,0,28,0,,,,,,,,,,,,,,,,,w,1,0.400816917419,,,,,,,,,,,,,,,,0.95,LearningTask,,,59.9197413666,3,2015_Apr_10_1414,2,
200,w,200,,,,,,,,,,,,,,,,,0,0,0,0,7,1,29,0,,,,,,,,,,,,,,,,,w,1,0.41729092598,,,,,,,,,,,,,,,,3.91,LearningTask,,,59.9197413666,3,2015_Apr_10_1414,2,
200,s,-200,,,,,,,,,,,,,,,,,0,0,0,0,7,2,30,2,,,,,,,,,,,,,,,,,s,1,0.384257793427,,,,,,,,,,,,,,,,2.01,LearningTask,,,59.9197413666,3,2015_Apr_10_1414,2,
-200,a,-200,,,,,,,,,,,,,,,,,0,0,0,0,7,3,31,3,,,,,,,,,,,,,,,,,a,1,0.367318868637,,,,,,,,,,,,,,,,2.06,LearningTask,,,59.9197413666,3,2015_Apr_10_1414,2,
200,w,200,,,,,,,,,,,,,,,,,0,0,0,0,8,0,32,0,,,,,,,,,,,,,,,,,w,1,0.283930063248,,,,,,,,,,,,,,,,2.02,LearningTask,,,59.9197413666,3,2015_Apr_10_1414,2,
-200,a,-200,,,,,,,,,,,,,,,,,0,0,0,0,8,1,33,3,,,,,,,,,,,,,,,,,a,1,0.350759029388,,,,,,,,,,,,,,,,0.59,LearningTask,,,59.9197413666,3,2015_Apr_10_1414,2,
200,s,-200,,,,,,,,,,,,,,,,,0,0,0,0,8,2,34,2,,,,,,,,,,,,,,,,,s,1,0.25074505806,,,,,,,,,,,,,,,,4.1,LearningTask,,,59.9197413666,3,2015_Apr_10_1414,2,
200,w,200,,,,,,,,,,,,,,,,,0,0,0,0,8,3,35,0,,,,,,,,,,,,,,,,,w,1,0.267228841782,,,,,,,,,,,,,,,,0.48,LearningTask,,,59.9197413666,3,2015_Apr_10_1414,2,
-200,a,-200,,,,,,,,,,,,,,,,,0,0,0,0,9,0,36,3,,,,,,,,,,,,,,,,,a,1,0.300844192505,,,,,,,,,,,,,,,,0.46,LearningTask,,,59.9197413666,3,2015_Apr_10_1414,2,
-200,a,-200,,,,,,,,,,,,,,,,,0,0,0,0,9,1,37,3,,,,,,,,,,,,,,,,,a,1,0.333923101425,,,,,,,,,,,,,,,,0.83,LearningTask,,,59.9197413666,3,2015_Apr_10_1414,2,
-200,q,200,,,,,,,,,,,,,,,,,0,0,0,0,9,2,38,1,,,,,,,,,,,,,,,,,q,1,0.284049034119,,,,,,,,,,,,,,,,2.03,LearningTask,,,59.9197413666,3,2015_Apr_10_1414,2,
-200,q,200,,,,,,,,,,,,,,,,,0,0,0,0,9,3,39,1,,,,,,,,,,,,,,,,,q,1,0.384285926819,,,,,,,,,,,,,,,,2.03,LearningTask,,,59.9197413666,3,2015_Apr_10_1414,2,
200,w,200,,,,,,,,,,,,,,,,,0,0,0,0,10,0,40,0,,,,,,,,,,,,,,,,,w,1,0.367371082306,,,,,,,,,,,,,,,,1.83,LearningTask,,,59.9197413666,3,2015_Apr_10_1414,2,
-200,q,200,,,,,,,,,,,,,,,,,0,0,0,0,10,1,41,1,,,,,,,,,,,,,,,,,q,1,0.334064006805,,,,,,,,,,,,,,,,0.72,LearningTask,,,59.9197413666,3,2015_Apr_10_1414,2,
200,s,-200,,,,,,,,,,,,,,,,,0,0,0,0,10,2,42,2,,,,,,,,,,,,,,,,,s,1,0.30092716217,,,,,,,,,,,,,,,,0.27,LearningTask,,,59.9197413666,3,2015_Apr_10_1414,2,
200,s,-200,,,,,,,,,,,,,,,,,0,0,0,0,10,3,43,2,,,,,,,,,,,,,,,,,s,1,0.36742401123,,,,,,,,,,,,,,,,1.03,LearningTask,,,59.9197413666,3,2015_Apr_10_1414,2,
-200,q,200,,,,,,,,,,,,,,,,,0,0,0,0,11,0,44,1,,,,,,,,,,,,,,,,,q,1,0.300665140152,,,,,,,,,,,,,,,,0.75,LearningTask,,,59.9197413666,3,2015_Apr_10_1414,2,
200,s,-200,,,,,,,,,,,,,,,,,0,0,0,0,11,1,45,2,,,,,,,,,,,,,,,,,s,1,0.350250959396,,,,,,,,,,,,,,,,0.45,LearningTask,,,59.9197413666,3,2015_Apr_10_1414,2,
-200,a,-200,,,,,,,,,,,,,,,,,0,0,0,0,11,2,46,3,,,,,,,,,,,,,,,,,a,1,0.250746965408,,,,,,,,,,,,,,,,3.93,LearningTask,,,59.9197413666,3,2015_Apr_10_1414,2,
-200,a,-200,,,,,,,,,,,,,,,,,0,0,0,0,11,3,47,3,,,,,,,,,,,,,,,,,a,1,0.417536020279,,,,,,,,,,,,,,,,0.57,LearningTask,,,59.9197413666,3,2015_Apr_10_1414,2,
200,s,-200,,,,,,,,,,,,,,,,,0,0,0,0,12,0,48,2,,,,,,,,,,,,,,,,,s,1,0.333977937698,,,,,,,,,,,,,,,,3.99,LearningTask,,,59.9197413666,3,2015_Apr_10_1414,2,
200,w,200,,,,,,,,,,,,,,,,,0,0,0,0,12,1,49,0,,,,,,,,,,,,,,,,,w,1,0.267424821854,,,,,,,,,,,,,,,,0.4,LearningTask,,,59.9197413666,3,2015_Apr_10_1414,2,
-200,a,-200,,,,,,,,,,,,,,,,,0,0,0,0,12,2,50,3,,,,,,,,,,,,,,,,,a,1,0.333945035934,,,,,,,,,,,,,,,,0.32,LearningTask,,,59.9197413666,3,2015_Apr_10_1414,2,
-200,a,-200,,,,,,,,,,,,,,,,,0,0,0,0,12,3,51,3,,,,,,,,,,,,,,,,,a,1,0.350700855255,,,,,,,,,,,,,,,,2.25,LearningTask,,,59.9197413666,3,2015_Apr_10_1414,2,
200,s,-200,,,,,,,,,,,,,,,,,0,0,0,0,13,0,52,2,,,,,,,,,,,,,,,,,s,1,0.350763082504,,,,,,,,,,,,,,,,4.11,LearningTask,,,59.9197413666,3,2015_Apr_10_1414,2,
-200,q,200,,,,,,,,,,,,,,,,,0,0,0,0,13,1,53,1,,,,,,,,,,,,,,,,,q,1,0.300868988037,,,,,,,,,,,,,,,,0.79,LearningTask,,,59.9197413666,3,2015_Apr_10_1414,2,
200,s,-200,,,,,,,,,,,,,,,,,0,0,0,0,13,2,54,2,,,,,,,,,,,,,,,,,s,1,0.350627183914,,,,,,,,,,,,,,,,4.09,LearningTask,,,59.9197413666,3,2015_Apr_10_1414,2,
200,s,-200,,,,,,,,,,,,,,,,,0,0,0,0,13,3,55,2,,,,,,,,,,,,,,,,,s,1,0.350743055344,,,,,,,,,,,,,,,,4.0,LearningTask,,,59.9197413666,3,2015_Apr_10_1414,2,
200,s,-200,,,,,,,,,,,,,,,,,0,0,0,0,14,0,56,2,,,,,,,,,,,,,,,,,s,1,0.367658853531,,,,,,,,,,,,,,,,1.09,LearningTask,,,59.9197413666,3,2015_Apr_10_1414,2,
-200,a,-200,,,,,,,,,,,,,,,,,0,0,0,0,14,1,57,3,,,,,,,,,,,,,,,,,a,1,0.300676107407,,,,,,,,,,,,,,,,4.09,LearningTask,,,59.9197413666,3,2015_Apr_10_1414,2,
200,s,-200,,,,,,,,,,,,,,,,,0,0,0,0,14,2,58,2,,,,,,,,,,,,,,,,,s,1,0.284598112106,,,,,,,,,,,,,,,,1.21,LearningTask,,,59.9197413666,3,2015_Apr_10_1414,2,
-200,q,200,,,,,,,,,,,,,,,,,0,0,0,0,14,3,59,1,,,,,,,,,,,,,,,,,q,1,0.250458955765,,,,,,,,,,,,,,,,0.32,LearningTask,,,59.9197413666,3,2015_Apr_10_1414,2,
-200,q,200,,,,,,,,,,,,,,,,,0,0,0,0,15,0,60,1,,,,,,,,,,,,,,,,,q,1,0.534324169159,,,,,,,,,,,,,,,,0.63,LearningTask,,,59.9197413666,3,2015_Apr_10_1414,2,
-200,a,-200,,,,,,,,,,,,,,,,,0,0,0,0,15,1,61,3,,,,,,,,,,,,,,,,,a,1,0.400989055634,,,,,,,,,,,,,,,,1.95,LearningTask,,,59.9197413666,3,2015_Apr_10_1414,2,
-200,q,200,,,,,,,,,,,,,,,,,0,0,0,0,15,2,62,1,,,,,,,,,,,,,,,,,q,1,0.384135961533,,,,,,,,,,,,,,,,1.79,LearningTask,,,59.9197413666,3,2015_Apr_10_1414,2,
-200,q,200,,,,,,,,,,,,,,,,,0,0,0,0,15,3,63,1,,,,,,,,,,,,,,,,,q,1,0.434305906296,,,,,,,,,,,,,,,,2.25,LearningTask,,,59.9197413666,3,2015_Apr_10_1414,2,
200,w,200,,,,,,,,,,,,,,,,,0,0,0,0,16,0,64,0,,,,,,,,,,,,,,,,,w,1,0.41729593277,,,,,,,,,,,,,,,,0.75,LearningTask,,,59.9197413666,3,2015_Apr_10_1414,2,
200,w,200,,,,,,,,,,,,,,,,,0,0,0,0,16,1,65,0,,,,,,,,,,,,,,,,,w,1,0.433903932571,,,,,,,,,,,,,,,,1.17,LearningTask,,,59.9197413666,3,2015_Apr_10_1414,2,
-200,q,200,,,,,,,,,,,,,,,,,0,0,0,0,16,2,66,1,,,,,,,,,,,,,,,,,q,1,0.434185028076,,,,,,,,,,,,,,,,0.72,LearningTask,,,59.9197413666,3,2015_Apr_10_1414,2,
-200,q,200,,,,,,,,,,,,,,,,,0,0,0,0,16,3,67,1,,,,,,,,,,,,,,,,,q,1,0.534253835678,,,,,,,,,,,,,,,,0.44,LearningTask,,,59.9197413666,3,2015_Apr_10_1414,2,
200,s,-200,,,,,,,,,,,,,,,,,0,0,0,0,17,0,68,2,,,,,,,,,,,,,,,,,s,1,0.367471218109,,,,,,,,,,,,,,,,3.89,LearningTask,,,59.9197413666,3,2015_Apr_10_1414,2,
-200,q,200,,,,,,,,,,,,,,,,,0,0,0,0,17,1,69,1,,,,,,,,,,,,,,,,,q,1,0.500926971436,,,,,,,,,,,,,,,,1.93,LearningTask,,,59.9197413666,3,2015_Apr_10_1414,2,
200,s,-200,,,,,,,,,,,,,,,,,0,0,0,0,17,2,70,2,,,,,,,,,,,,,,,,,s,1,0.350910186768,,,,,,,,,,,,,,,,1.22,LearningTask,,,59.9197413666,3,2015_Apr_10_1414,2,
200,w,200,,,,,,,,,,,,,,,,,0,0,0,0,17,3,71,0,,,,,,,,,,,,,,,,,w,1,0.434241056442,,,,,,,,,,,,,,,,2.08,LearningTask,,,59.9197413666,3,2015_Apr_10_1414,2,
-200,a,-200,,,,,,,,,,,,,,,,,0,0,0,0,18,0,72,3,,,,,,,,,,,,,,,,,a,1,0.367374897003,,,,,,,,,,,,,,,,1.83,LearningTask,,,59.9197413666,3,2015_Apr_10_1414,2,
200,w,200,,,,,,,,,,,,,,,,,0,0,0,0,18,1,73,0,,,,,,,,,,,,,,,,,w,1,0.367729902267,,,,,,,,,,,,,,,,2.19,LearningTask,,,59.9197413666,3,2015_Apr_10_1414,2,
-200,q,200,,,,,,,,,,,,,,,,,0,0,0,0,18,2,74,1,,,,,,,,,,,,,,,,,q,1,0.367428064346,,,,,,,,,,,,,,,,0.8,LearningTask,,,59.9197413666,3,2015_Apr_10_1414,2,
-200,a,-200,,,,,,,,,,,,,,,,,0,0,0,0,18,3,75,3,,,,,,,,,,,,,,,,,a,1,0.400685071945,,,,,,,,,,,,,,,,1.89,LearningTask,,,59.9197413666,3,2015_Apr_10_1414,2,
-200,q,200,,,,,,,,,,,,,,,,,0,0,0,0,19,0,76,1,,,,,,,,,,,,,,,,,q,1,0.350823163986,,,,,,,,,,,,,,,,0.3,LearningTask,,,59.9197413666,3,2015_Apr_10_1414,2,
200,s,-200,,,,,,,,,,,,,,,,,0,0,0,0,19,1,77,2,,,,,,,,,,,,,,,,,s,1,0.300685167313,,,,,,,,,,,,,,,,0.78,LearningTask,,,59.9197413666,3,2015_Apr_10_1414,2,
-200,q,200,,,,,,,,,,,,,,,,,0,0,0,0,19,2,78,1,,,,,,,,,,,,,,,,,q,1,0.317495107651,,,,,,,,,,,,,,,,2.24,LearningTask,,,59.9197413666,3,2015_Apr_10_1414,2,
-200,q,200,,,,,,,,,,,,,,,,,0,0,0,0,19,3,79,1,,,,,,,,,,,,,,,,,q,1,0.300609111786,,,,,,,,,,,,,,,,0.47,LearningTask,,,59.9197413666,3,2015_Apr_10_1414,2,
200,w,200,,,,,,,,,,,,,,,,,0,0,0,0,20,0,80,0,,,,,,,,,,,,,,,,,w,1,0.283972978592,,,,,,,,,,,,,,,,1.11,LearningTask,,,59.9197413666,3,2015_Apr_10_1414,2,
200,s,-200,,,,,,,,,,,,,,,,,0,0,0,0,20,1,81,2,,,,,,,,,,,,,,,,,s,1,0.3176009655,,,,,,,,,,,,,,,,2.19,LearningTask,,,59.9197413666,3,2015_Apr_10_1414,2,
200,s,-200,,,,,,,,,,,,,,,,,0,0,0,0,20,2,82,2,,,,,,,,,,,,,,,,,s,1,0.35073018074,,,,,,,,,,,,,,,,2.13,LearningTask,,,59.9197413666,3,2015_Apr_10_1414,2,
-200,q,200,,,,,,,,,,,,,,,,,0,0,0,0,20,3,83,1,,,,,,,,,,,,,,,,,q,1,0.367547988892,,,,,,,,,,,,,,,,2.04,LearningTask,,,59.9197413666,3,2015_Apr_10_1414,2,
200,w,200,,,,,,,,,,,,,,,,,0,0,0,0,21,0,84,0,,,,,,,,,,,,,,,,,w,1,0.284214019775,,,,,,,,,,,,,,,,2.18,LearningTask,,,59.9197413666,3,2015_Apr_10_1414,2,
-200,a,-200,,,,,,,,,,,,,,,,,0,0,0,0,21,1,85,3,,,,,,,,,,,,,,,,,a,1,0.317482948303,,,,,,,,,,,,,,,,2.06,LearningTask,,,59.9197413666,3,2015_Apr_10_1414,2,
-200,a,-200,,,,,,,,,,,,,,,,,0,0,0,0,21,2,86,3,,,,,,,,,,,,,,,,,a,1,0.367438077927,,,,,,,,,,,,,,,,0.28,LearningTask,,,59.9197413666,3,2015_Apr_10_1414,2,
-200,a,-200,,,,,,,,,,,,,,,,,0,0,0,0,21,3,87,3,,,,,,,,,,,,,,,,,a,1,0.484200954437,,,,,,,,,,,,,,,,0.58,LearningTask,,,59.9197413666,3,2015_Apr_10_1414,2,
-200,q,200,,,,,,,,,,,,,,,,,0,0,0,0,22,0,88,1,,,,,,,,,,,,,,,,,q,1,0.36726808548,,,,,,,,,,,,,,,,0.37,LearningTask,,,59.9197413666,3,2015_Apr_10_1414,2,
-200,a,-200,,,,,,,,,,,,,,,,,0,0,0,0,22,1,89,3,,,,,,,,,,,,,,,,,a,1,0.417474031448,,,,,,,,,,,,,,,,0.26,LearningTask,,,59.9197413666,3,2015_Apr_10_1414,2,
200,s,-200,,,,,,,,,,,,,,,,,0,0,0,0,22,2,90,2,,,,,,,,,,,,,,,,,s,1,0.434131860733,,,,,,,,,,,,,,,,1.87,LearningTask,,,59.9197413666,3,2015_Apr_10_1414,2,
-200,a,-200,,,,,,,,,,,,,,,,,0,0,0,0,22,3,91,3,,,,,,,,,,,,,,,,,a,1,0.417553901672,,,,,,,,,,,,,,,,0.38,LearningTask,,,59.9197413666,3,2015_Apr_10_1414,2,
-200,a,-200,,,,,,,,,,,,,,,,,0,0,0,0,23,0,92,3,,,,,,,,,,,,,,,,,a,1,0.467555999756,,,,,,,,,,,,,,,,1.1,LearningTask,,,59.9197413666,3,2015_Apr_10_1414,2,
-200,q,200,,,,,,,,,,,,,,,,,0,0,0,0,23,1,93,1,,,,,,,,,,,,,,,,,q,1,0.33417391777,,,,,,,,,,,,,,,,3.89,LearningTask,,,59.9197413666,3,2015_Apr_10_1414,2,
200,s,-200,,,,,,,,,,,,,,,,,0,0,0,0,23,2,94,2,,,,,,,,,,,,,,,,,s,1,0.317341089249,,,,,,,,,,,,,,,,4.18,LearningTask,,,59.9197413666,3,2015_Apr_10_1414,2,
200,w,200,,,,,,,,,,,,,,,,,0,0,0,0,23,3,95,0,,,,,,,,,,,,,,,,,w,1,0.400871038437,,,,,,,,,,,,,,,,4.14,LearningTask,,,59.9197413666,3,2015_Apr_10_1414,2,
200,s,-200,,,,,,,,,,,,,,,,,0,0,0,0,24,0,96,2,,,,,,,,,,,,,,,,,s,1,0.400787830353,,,,,,,,,,,,,,,,0.65,LearningTask,,,59.9197413666,3,2015_Apr_10_1414,2,
-200,q,200,,,,,,,,,,,,,,,,,0,0,0,0,24,1,97,1,,,,,,,,,,,,,,,,,q,1,0.45094704628,,,,,,,,,,,,,,,,4.11,LearningTask,,,59.9197413666,3,2015_Apr_10_1414,2,
-200,a,-200,,,,,,,,,,,,,,,,,0,0,0,0,24,2,98,3,,,,,,,,,,,,,,,,,a,1,0.433897018433,,,,,,,,,,,,,,,,2.06,LearningTask,,,59.9197413666,3,2015_Apr_10_1414,2,
200,s,-200,,,,,,,,,,,,,,,,,0,0,0,0,24,3,99,2,,,,,,,,,,,,,,,,,s,1,0.384255886078,,,,,,,,,,,,,,,,4.14,LearningTask,,,59.9197413666,3,2015_Apr_10_1414,2,
,,,,,,,,,,,,,,,,,,,0,0,0,0,,,,,,,,,,,,,,,,,,,,,,,,,,,,,,,,,,,,,,,,LearningTask,,,59.9197413666,3,2015_Apr_10_1414,2,
