xPos,corrAns,yPos,corrGoResp,yPosGoStim,xPosGoStim,pracTrials.thisRepN,pracTrials.thisTrialN,pracTrials.thisN,pracTrials.thisIndex,ReDoLoopPrac.thisRepN,ReDoLoopPrac.thisTrialN,ReDoLoopPrac.thisN,ReDoLoopPrac.thisIndex,ReDoLoopPrac.thisTrial,pracStopTrials.thisRepN,pracStopTrials.thisTrialN,pracStopTrials.thisN,pracStopTrials.thisIndex,Blocks.thisRepN,Blocks.thisTrialN,Blocks.thisN,Blocks.thisIndex,trials.thisRepN,trials.thisTrialN,trials.thisN,trials.thisIndex,ReDoLoopMain.thisRepN,ReDoLoopMain.thisTrialN,ReDoLoopMain.thisN,ReDoLoopMain.thisIndex,ReDoLoopMain.thisTrial,StopBlocks.thisRepN,StopBlocks.thisTrialN,StopBlocks.thisN,StopBlocks.thisIndex,StopTrials.thisRepN,StopTrials.thisTrialN,StopTrials.thisN,StopTrials.thisIndex,auctionBlocks.thisRepN,auctionBlocks.thisTrialN,auctionBlocks.thisN,auctionBlocks.thisIndex,auctionTrials.thisRepN,auctionTrials.thisTrialN,auctionTrials.thisN,auctionTrials.thisIndex,ok1.keys,ok1.rt,StartTrialTimeStamp,resp.keys,resp.corr,feedbackResp.keys,feedbackResp.corr,firstPracComputedRewardOutput,firstPracLearningStimOnset,firstPracLearningFixOnset,firstPracPresentationRT,firstPracPresentationAcc,firstPracPresentationResp,firstPracEndTrialTimeStamp,resp.rt,secondPracComputedRewardOutput,secondPracLearningStimOnset,secondPracLearningFixOnset,secondPracPresentationRT,secondPracPresentationAcc,secondPracPresentationResp,secondPracEndTrialTimeStamp,thirdPracComputedRewardOutput,thirdPracLearningStimOnset,thirdPracLearningFixOnset,thirdPracPresentationRT,thirdPracPresentationAcc,thirdPracPresentationResp,thirdPracEndTrialTimeStamp,trialType,goStim,goResp.keys,goResp.corr,goResp.rt,key_resp_9.keys,key_resp_9.corr,fixStopOnset,goStimOnset,EndTrialTimeStamp,stopSignalOnset,key_resp_3.keys,key_resp_3.rt,firstComputedRewardOutput,firstLearningStimOnset,firstLearningFixOnset,firstPresentationRT,firstPresentationAcc,firstPresentationResp,firstEndTrialTimeStamp,secondComputedRewardOutput,secondLearningStimOnset,secondLearningFixOnset,secondPresentationRT,secondPresentationAcc,secondPresentationResp,secondEndTrialTimeStamp,thirdComputedRewardOutput,thirdLearningStimOnset,thirdLearningFixOnset,thirdPresentationRT,thirdPresentationAcc,thirdPresentationResp,thirdEndTrialTimeStamp,key_resp_7.keys,key_resp_7.rt,feedbackResp.rt,beginningSSD,EndingSSD,key_resp_9.rt,key_resp_4.keys,key_resp_4.rt,auctionResponse.keys,auctionResponse.rt,auctionStimDuration,key_resp_5.keys,key_resp_5.rt,key_resp_6.keys,key_resp_6.rt,date,frameRate,expName,session,participant,
,,,,,,,,,,,,,,,,,,,,,,,,,,,,,,,,,,,,,,,,,,,,,,,,9,134.847695112,,,,,,,,,,,,,,,,,,,,,,,,,,,,,,,,,,,,,,,,,,,,,,,,,,,,,,,,,,,,,,,,,,,,,,,,,,,,,2015_Jun_05_1044,59.8888552548,LearningTask,001,43,
200,w,200,,,,0,0,0,4,,,,,,,,,,,,,,,,,,,,,,,,,,,,,,,,,,,,,,,,,148.456743002,w,1,None,0,2.21,0.508234024048,0.0584850311279,[],0,None,148.456448078,0.350858211517,2.13,0.515362024307,0.000997066497803,0.350858211517,1,w,151.459025145,,,,,,,,,,,,,,,,,,,,,,,,,,,,,,,,,,,,,,,,,,,,,,,,,,,,,,,,,2015_Jun_05_1044,59.8888552548,LearningTask,001,43,
200,s,-200,,,,0,1,1,2,,,,,,,,,,,,,,,,,,,,,,,,,,,,,,,,,,,,,,,,,151.460482121,s,1,None,0,0.76,0.515269994736,0.0427951812744,0.384057044983,1,s,154.462318182,0.384057044983,,,,,,,,,,,,,,,,,,,,,,,,,,,,,,,,,,,,,,,,,,,,,,,,,,,,,,,,,,,,,,,,2015_Jun_05_1044,59.8888552548,LearningTask,001,43,
-200,a,-200,,,,0,2,2,3,,,,,,,,,,,,,,,,,,,,,,,,,,,,,,,,,,,,,,,,,160.46948719,a,1,None,0,2.07,0.515141010284,0.000956058502197,0.417697906494,0,s,157.465674162,0.367423772812,2.1,0.516258955002,0.00101184844971,0.417658090591,0,q,160.469186068,2.22,0.515959024429,0.000984907150269,0.367423772812,1,a,163.472548962,,,,,,,,,,,,,,,,,,,,,,,,,,,,,,,,,,,,,,,,,,,,,,,,,,2015_Jun_05_1044,59.8888552548,LearningTask,001,43,
200,w,200,,,,0,3,3,8,,,,,,,,,,,,,,,,,,,,,,,,,,,,,,,,,,,,,,,,,163.473838091,w,1,None,0,4.07,0.515305042267,0.0393540859222,0.417198896408,1,w,166.475746155,0.417198896408,,,,,,,,,,,,,,,,,,,,,,,,,,,,,,,,,,,,,,,,,,,,,,,,,,,,,,,,,,,,,,,,2015_Jun_05_1044,59.8888552548,LearningTask,001,43,
200,w,200,,,,0,4,4,0,,,,,,,,,,,,,,,,,,,,,,,,,,,,,,,,,,,,,,,,,166.47706604,w,1,None,0,1.2,0.515059947968,0.00236392021179,0.384521961212,1,w,169.479138136,0.384521961212,,,,,,,,,,,,,,,,,,,,,,,,,,,,,,,,,,,,,,,,,,,,,,,,,,,,,,,,,,,,,,,,2015_Jun_05_1044,59.8888552548,LearningTask,001,43,
-200,q,200,,,,0,5,5,9,,,,,,,,,,,,,,,,,,,,,,,,,,,,,,,,,,,,,,,,,169.480441093,q,1,None,0,2.07,0.514964103699,0.0563170909882,0.367860078812,1,q,172.483081102,0.367860078812,,,,,,,,,,,,,,,,,,,,,,,,,,,,,,,,,,,,,,,,,,,,,,,,,,,,,,,,,,,,,,,,2015_Jun_05_1044,59.8888552548,LearningTask,001,43,
-200,q,200,,,,0,6,6,5,,,,,,,,,,,,,,,,,,,,,,,,,,,,,,,,,,,,,,,,,172.484439135,q,1,None,0,1.8,0.514206886292,0.00103187561035,0.384449005127,1,q,175.485757113,0.384449005127,,,,,,,,,,,,,,,,,,,,,,,,,,,,,,,,,,,,,,,,,,,,,,,,,,,,,,,,,,,,,,,,2015_Jun_05_1044,59.8888552548,LearningTask,001,43,
-200,q,200,,,,0,7,7,1,,,,,,,,,,,,,,,,,,,,,,,,,,,,,,,,,,,,,,,,,175.487338066,q,1,None,0,0.83,0.514610052109,0.000956058502197,0.400778770447,1,q,178.489071131,0.400778770447,,,,,,,,,,,,,,,,,,,,,,,,,,,,,,,,,,,,,,,,,,,,,,,,,,,,,,,,,,,,,,,,2015_Jun_05_1044,59.8888552548,LearningTask,001,43,
200,s,-200,,,,0,8,8,6,,,,,,,,,,,,,,,,,,,,,,,,,,,,,,,,,,,,,,,,,178.490350008,s,1,None,0,0.38,0.515156984329,0.0353438854218,0.384043931961,1,s,181.492523193,0.384043931961,,,,,,,,,,,,,,,,,,,,,,,,,,,,,,,,,,,,,,,,,,,,,,,,,,,,,,,,,,,,,,,,2015_Jun_05_1044,59.8888552548,LearningTask,001,43,
-200,a,-200,,,,0,9,9,7,,,,,,,,,,,,,,,,,,,,,,,,,,,,,,,,,,,,,,,,,181.493757963,a,1,None,0,2.05,0.515146017075,0.00102305412292,0.367394208908,1,a,184.496123075,0.367394208908,,,,,,,,,,,,,,,,,,,,,,,,,,,,,,,,,,,,,,,,,,,,,,,,,,,,,,,,,,,,,,,,2015_Jun_05_1044,59.8888552548,LearningTask,001,43,
,,,z,0,-200,,,,,,,,,,0,0,0,0,,,,,,,,,,,,,,,,,,,,,,,,,,,,,,,,299.595575094,,,,,,,,,,,,,,,,,,,,,,,,,,,go,squaregreen.gif,z,1,0.367200136185,None,0,0.0387709140778,0.511581897736,302.594176054,,,,,,,,,,,,,,,,,,,,,,,,,,,,,,,,,,,,,,,,2015_Jun_05_1044,59.8888552548,LearningTask,001,43,
,,,z,0,-200,,,,,,,,,,0,1,1,0,,,,,,,,,,,,,,,,,,,,,,,,,,,,,,,,302.594563007,,,,,,,,,,,,,,,,,,,,,,,,,,,stop,circleyellow.gif,z,1,0.367980957031,None,0,0.000984907150269,0.515895843506,305.597738028,0.765994787216,,,,,,,,,,,,,,,,,,,,,,,,,,,,,,,,,,,,,,,2015_Jun_05_1044,59.8888552548,LearningTask,001,43,
,,,m,0,200,,,,,,,,,,1,0,2,1,,,,,,,,,,,,,,,,,,,,,,,,,,,,,,,,305.598140001,,,,,,,,,,,,,,,,,,,,,,,,,,,stop,circleyellow.gif,m,1,0.334164142609,None,0,0.000969171524048,0.515748977661,308.600996017,0.765918016434,,,,,,,,,,,,,,,,,,,,,,,,,,,,,,,,,,,,,,,2015_Jun_05_1044,59.8888552548,LearningTask,001,43,
,,,z,0,-200,,,,,,,,,,1,1,3,0,,,,,,,,,,,,,,,,,,,,,,,,,,,,,,,,308.601510048,,,,,,,,,,,,,,,,,,,,,,,,,,,go,lineblue.gif,z,1,0.334098100662,None,0,0.0175428390503,0.5157558918,311.604094982,,,,,,,,,,,,,,,,,,,,,,,,,,,,,,,,,,,,,,,,2015_Jun_05_1044,59.8888552548,LearningTask,001,43,
,,,m,0,200,,,,,,,,,,2,0,4,1,,,,,,,,,,,,,,,,,,,,,,,,,,,,,,,,311.604462147,,,,,,,,,,,,,,,,,,,,,,,,,,,go,invertedtrianglecyan.gif,m,1,0.467647075653,None,0,0.00104403495789,0.516273021698,314.607629061,,,,,,,,,,,,,,,,,,,,,,,,,,,,,,,,,,,,,,,,2015_Jun_05_1044,59.8888552548,LearningTask,001,43,
,,,m,0,200,,,,,,,,,,2,1,5,1,,,,,,,,,,,,,,,,,,,,,,,,,,,,,,,,314.60799408,,,,,,,,,,,,,,,,,,,,,,,,,,,go,squaregreen.gif,m,1,0.384354829788,None,0,0.000967979431152,0.51609992981,317.611140966,,,,,,,,,,,,,,,,,,,,,,,,,,,,,,,,,,,,,,,,2015_Jun_05_1044,59.8888552548,LearningTask,001,43,
,,,z,0,-200,,,,,,,,,,3,0,6,0,,,,,,,,,,,,,,,,,,,,,,,,,,,,,,,,317.611548185,,,,,,,,,,,,,,,,,,,,,,,,,,,stop,hexagonwhite.gif,None,0,,None,0,0.000959873199463,0.515856981277,320.614583015,0.765889883041,,,,,,,,,,,,,,,,,,,,,,,,,,,,,,,,,,,,,,,2015_Jun_05_1044,59.8888552548,LearningTask,001,43,
,,,m,0,200,,,,,,,,,,3,1,7,1,,,,,,,,,,,,,,,,,,,,,,,,,,,,,,,,320.614988089,,,,,,,,,,,,,,,,,,,,,,,,,,,stop,hexagonwhite.gif,m,1,0.400869846344,None,0,0.000993967056274,0.515665054321,323.617686033,0.76603102684,,,,,,,,,,,,,,,,,,,,,,,,,,,,,,,,,,,,,,,2015_Jun_05_1044,59.8888552548,LearningTask,001,43,
,,,z,0,-200,,,,,,,,,,4,0,8,0,,,,,,,,,,,,,,,,,,,,,,,,,,,,,,,,323.618046045,,,,,,,,,,,,,,,,,,,,,,,,,,,stop,crossgray.gif,None,0,,None,0,0.00108289718628,0.516149997711,326.621049166,0.766320943832,,,,,,,,,,,,,,,,,,,,,,,,,,,,,,,,,,,,,,,2015_Jun_05_1044,59.8888552548,LearningTask,001,43,
,,,m,0,200,,,,,,,,,,4,1,9,1,,,,,,,,,,,,,,,,,,,,,,,,,,,,,,,,326.621411085,,,,,,,,,,,,,,,,,,,,,,,,,,,go,squaregreen.gif,m,1,0.3010430336,None,0,0.000942945480347,0.515938997269,329.624552965,,,,,,,,,,,,,,,,,,,,,,,,,,,,,,,,,,,,,,,,2015_Jun_05_1044,59.8888552548,LearningTask,001,43,
,,,,,,,,,,,,,,,,,,,,,,,,,,,,,,,,,,,,,,,,,,,,,,,,,,,,,,,,,,,,,,,,,,,,,,,,,,,,,,,,,,,,,,,,space,64.935297966,,,,,,,,,,,,,,,,,,,,,,,,,,,,,,,,,,,,,2015_Jun_05_1044,59.8888552548,LearningTask,001,43,
,,,,,,,,,,,,,,,,,,,,,,,,,,,,,,,,,,,,,,,,,,,,,,,,9,31.8853440285,,,,,,,,,,,,,,,,,,,,,,,,,,,,,,,,,,,,,,,,,,,,,,,,,,,,,,,,,,,,,,,,,,,,,,,,,,,,,2015_Jun_05_1044,59.8888552548,LearningTask,001,43,
-200,a,-200,,,,,,,,,,,,,,,,,0,0,0,0,0,0,0,3,,,,,,,,,,,,,,,,,,,,,,,,426.634903193,a,1,None,0,,,,,,,,0.467657804489,,,,,,,,,,,,,,,,,,,,,,,,,,,,0.33,0.514026880264,0.00112199783325,0.467657804489,1,a,429.637228012,,,,,,,,,,,,,,,,,,,,,,,,,,,,,,2015_Jun_05_1044,59.8888552548,LearningTask,001,43,
200,w,200,,,,,,,,,,,,,,,,,0,0,0,0,0,1,1,0,,,,,,,,,,,,,,,,,,,,,,,,429.6388731,w,1,None,0,,,,,,,,0.384397983551,,,,,,,,,,,,,,,,,,,,,,,,,,,,1.1,0.51348400116,0.00106978416443,0.384397983551,1,w,432.640071154,,,,,,,,,,,,,,,,,,,,,,,,,,,,,,2015_Jun_05_1044,59.8888552548,LearningTask,001,43,
200,w,200,,,,,,,,,,,,,,,,,0,0,0,0,0,2,2,0,,,,,,,,,,,,,,,,,,,,,,,,432.641937017,w,1,None,0,,,,,,,,0.400660991669,,,,,,,,,,,,,,,,,,,,,,,,,,,,0.47,0.514098882675,0.000952005386353,0.400660991669,1,w,435.643728971,,,,,,,,,,,,,,,,,,,,,,,,,,,,,,2015_Jun_05_1044,59.8888552548,LearningTask,001,43,
200,w,200,,,,,,,,,,,,,,,,,0,0,0,0,0,3,3,0,,,,,,,,,,,,,,,,,,,,,,,,435.645317078,w,1,None,0,,,,,,,,0.367556095123,,,,,,,,,,,,,,,,,,,,,,,,,,,,2.07,0.513878107071,0.000920057296753,0.367556095123,1,w,438.646748066,,,,,,,,,,,,,,,,,,,,,,,,,,,,,,2015_Jun_05_1044,59.8888552548,LearningTask,001,43,
-200,q,200,,,,,,,,,,,,,,,,,0,0,0,0,1,0,4,1,,,,,,,,,,,,,,,,,,,,,,,,438.648286104,q,1,None,0,,,,,,,,0.368084907532,,,,,,,,,,,,,,,,,,,,,,,,,,,,4.2,0.514039993286,0.001051902771,0.368084907532,1,q,441.650204182,,,,,,,,,,,,,,,,,,,,,,,,,,,,,,2015_Jun_05_1044,59.8888552548,LearningTask,001,43,
200,s,-200,,,,,,,,,,,,,,,,,0,0,0,0,1,1,5,2,,,,,,,,,,,,,,,,,,,,,,,,441.651767969,s,1,None,0,,,,,,,,0.367652893066,,,,,,,,,,,,,,,,,,,,,,,,,,,,3.88,0.514088153839,0.000977039337158,0.367652893066,1,s,444.65329814,,,,,,,,,,,,,,,,,,,,,,,,,,,,,,2015_Jun_05_1044,59.8888552548,LearningTask,001,43,
200,s,-200,,,,,,,,,,,,,,,,,0,0,0,0,1,2,6,2,,,,,,,,,,,,,,,,,,,,,,,,444.654947042,s,1,None,0,,,,,,,,0.367410182953,,,,,,,,,,,,,,,,,,,,,,,,,,,,0.59,0.514678955078,0.000914096832275,0.367410182953,1,s,447.657129049,,,,,,,,,,,,,,,,,,,,,,,,,,,,,,2015_Jun_05_1044,59.8888552548,LearningTask,001,43,
200,s,-200,,,,,,,,,,,,,,,,,0,0,0,0,1,3,7,2,,,,,,,,,,,,,,,,,,,,,,,,447.658715963,s,1,None,0,,,,,,,,0.367207050323,,,,,,,,,,,,,,,,,,,,,,,,,,,,1.07,0.514319896698,0.000900983810425,0.367207050323,1,s,450.660335064,,,,,,,,,,,,,,,,,,,,,,,,,,,,,,2015_Jun_05_1044,59.8888552548,LearningTask,001,43,
-200,a,-200,,,,,,,,,,,,,,,,,0,0,0,0,2,0,8,3,,,,,,,,,,,,,,,,,,,,,,,,450.662032127,a,1,None,0,,,,,,,,0.350946903229,,,,,,,,,,,,,,,,,,,,,,,,,,,,3.93,0.51433300972,0.000972986221313,0.350946903229,1,a,453.663341045,,,,,,,,,,,,,,,,,,,,,,,,,,,,,,2015_Jun_05_1044,59.8888552548,LearningTask,001,43,
-200,a,-200,,,,,,,,,,,,,,,,,0,0,0,0,2,1,9,3,,,,,,,,,,,,,,,,,,,,,,,,453.665045977,a,1,None,0,,,,,,,,0.334285020828,,,,,,,,,,,,,,,,,,,,,,,,,,,,0.25,0.51435303688,0.00127601623535,0.334285020828,1,a,456.666730165,,,,,,,,,,,,,,,,,,,,,,,,,,,,,,2015_Jun_05_1044,59.8888552548,LearningTask,001,43,
200,w,200,,,,,,,,,,,,,,,,,0,0,0,0,2,2,10,0,,,,,,,,,,,,,,,,,,,,,,,,456.668302059,w,1,None,0,,,,,,,,0.300853013992,,,,,,,,,,,,,,,,,,,,,,,,,,,,4.16,0.514220952988,0.000981092453003,0.300853013992,1,w,459.670154095,,,,,,,,,,,,,,,,,,,,,,,,,,,,,,2015_Jun_05_1044,59.8888552548,LearningTask,001,43,
-200,q,200,,,,,,,,,,,,,,,,,0,0,0,0,2,3,11,1,,,,,,,,,,,,,,,,,,,,,,,,459.671914101,q,1,None,0,,,,,,,,0.284381866455,,,,,,,,,,,,,,,,,,,,,,,,,,,,3.75,0.51396894455,0.000945091247559,0.284381866455,1,q,462.673583984,,,,,,,,,,,,,,,,,,,,,,,,,,,,,,2015_Jun_05_1044,59.8888552548,LearningTask,001,43,
200,s,-200,,,,,,,,,,,,,,,,,0,0,0,0,3,0,12,2,,,,,,,,,,,,,,,,,,,,,,,,462.675243139,s,1,None,0,,,,,,,,0.383532047272,,,,,,,,,,,,,,,,,,,,,,,,,,,,1.75,0.514667987823,0.000974893569946,0.383532047272,1,s,465.676684141,,,,,,,,,,,,,,,,,,,,,,,,,,,,,,2015_Jun_05_1044,59.8888552548,LearningTask,001,43,
-200,q,200,,,,,,,,,,,,,,,,,0,0,0,0,3,1,13,1,,,,,,,,,,,,,,,,,,,,,,,,465.678263187,q,1,None,0,,,,,,,,0.367286920547,,,,,,,,,,,,,,,,,,,,,,,,,,,,1.19,0.514652967453,0.000946044921875,0.367286920547,1,q,468.680207014,,,,,,,,,,,,,,,,,,,,,,,,,,,,,,2015_Jun_05_1044,59.8888552548,LearningTask,001,43,
-200,a,-200,,,,,,,,,,,,,,,,,0,0,0,0,3,2,14,3,,,,,,,,,,,,,,,,,,,,,,,,468.681930065,a,1,None,0,,,,,,,,0.384412050247,,,,,,,,,,,,,,,,,,,,,,,,,,,,0.62,0.514262914658,0.000954866409302,0.384412050247,1,a,471.684013128,,,,,,,,,,,,,,,,,,,,,,,,,,,,,,2015_Jun_05_1044,59.8888552548,LearningTask,001,43,
200,w,200,,,,,,,,,,,,,,,,,0,0,0,0,3,3,15,0,,,,,,,,,,,,,,,,,,,,,,,,471.68552804,w,1,None,0,,,,,,,,0.367506027222,,,,,,,,,,,,,,,,,,,,,,,,,,,,3.81,0.514013051987,0.00091290473938,0.367506027222,1,w,474.686933994,,,,,,,,,,,,,,,,,,,,,,,,,,,,,,2015_Jun_05_1044,59.8888552548,LearningTask,001,43,
200,s,-200,,,,,,,,,,,,,,,,,0,0,0,0,4,0,16,2,,,,,,,,,,,,,,,,,,,,,,,,474.688431025,s,1,None,0,,,,,,,,0.401056051254,,,,,,,,,,,,,,,,,,,,,,,,,,,,4.17,0.514131069183,0.000941038131714,0.401056051254,1,s,477.690207958,,,,,,,,,,,,,,,,,,,,,,,,,,,,,,2015_Jun_05_1044,59.8888552548,LearningTask,001,43,
-200,q,200,,,,,,,,,,,,,,,,,0,0,0,0,4,1,17,1,,,,,,,,,,,,,,,,,,,,,,,,477.691643,q,1,None,0,,,,,,,,0.284288883209,,,,,,,,,,,,,,,,,,,,,,,,,,,,4.2,0.514506101608,0.000960111618042,0.284288883209,1,q,480.693670988,,,,,,,,,,,,,,,,,,,,,,,,,,,,,,2015_Jun_05_1044,59.8888552548,LearningTask,001,43,
200,s,-200,,,,,,,,,,,,,,,,,0,0,0,0,4,2,18,2,,,,,,,,,,,,,,,,,,,,,,,,480.695199013,s,1,None,0,,,,,,,,0.384531974792,,,,,,,,,,,,,,,,,,,,,,,,,,,,0.31,0.514480113983,0.00092601776123,0.384531974792,1,s,483.697453976,,,,,,,,,,,,,,,,,,,,,,,,,,,,,,2015_Jun_05_1044,59.8888552548,LearningTask,001,43,
200,s,-200,,,,,,,,,,,,,,,,,0,0,0,0,4,3,19,2,,,,,,,,,,,,,,,,,,,,,,,,483.698976994,s,1,None,0,,,,,,,,0.317620038986,,,,,,,,,,,,,,,,,,,,,,,,,,,,4.2,0.513902187347,0.000892162322998,0.317620038986,1,s,486.700206995,,,,,,,,,,,,,,,,,,,,,,,,,,,,,,2015_Jun_05_1044,59.8888552548,LearningTask,001,43,
-200,a,-200,,,,,,,,,,,,,,,,,0,0,0,0,5,0,20,3,,,,,,,,,,,,,,,,,,,,,,,,486.701815128,a,1,None,0,,,,,,,,0.351155042648,,,,,,,,,,,,,,,,,,,,,,,,,,,,1.09,0.514211177826,0.000956058502197,0.351155042648,1,a,489.703979015,,,,,,,,,,,,,,,,,,,,,,,,,,,,,,2015_Jun_05_1044,59.8888552548,LearningTask,001,43,
-200,q,200,,,,,,,,,,,,,,,,,0,0,0,0,5,1,21,1,,,,,,,,,,,,,,,,,,,,,,,,489.705641985,q,1,None,0,,,,,,,,0.384726047516,,,,,,,,,,,,,,,,,,,,,,,,,,,,4.03,0.513957023621,0.00099515914917,0.384726047516,1,q,492.707060099,,,,,,,,,,,,,,,,,,,,,,,,,,,,,,2015_Jun_05_1044,59.8888552548,LearningTask,001,43,
-200,q,200,,,,,,,,,,,,,,,,,0,0,0,0,5,2,22,1,,,,,,,,,,,,,,,,,,,,,,,,495.711172104,q,1,None,0,,,,,,,,0.334721088409,,,,,,,,,,,,,,,,,,,,,,,,,,,,2.24,0.514451980591,0.000961065292358,0.333917856216,0,a,495.710848093,1.93,0.515111923218,0.0011739730835,0.334721088409,1,q,498.714384079,,,,,,,,,,,,,,,,,,,,,,,2015_Jun_05_1044,59.8888552548,LearningTask,001,43,
200,s,-200,,,,,,,,,,,,,,,,,0,0,0,0,5,3,23,2,,,,,,,,,,,,,,,,,,,,,,,,501.718075037,s,1,None,0,,,,,,,,0.334324121475,,,,,,,,,,,,,,,,,,,,,,,,,,,,1.79,0.513302087784,0.00102496147156,0.351034879684,0,w,501.717724085,1.96,0.514833927155,0.000996112823486,0.334324121475,1,s,504.720371008,,,,,,,,,,,,,,,,,,,,,,,2015_Jun_05_1044,59.8888552548,LearningTask,001,43,
200,s,-200,,,,,,,,,,,,,,,,,0,0,0,0,6,0,24,2,,,,,,,,,,,,,,,,,,,,,,,,504.72201705,s,1,None,0,,,,,,,,0.334469079971,,,,,,,,,,,,,,,,,,,,,,,,,,,,1.97,0.51460313797,0.000914096832275,0.334469079971,1,s,507.724361181,,,,,,,,,,,,,,,,,,,,,,,,,,,,,,2015_Jun_05_1044,59.8888552548,LearningTask,001,43,
-200,a,-200,,,,,,,,,,,,,,,,,0,0,0,0,6,1,25,3,,,,,,,,,,,,,,,,,,,,,,,,507.726094961,a,1,None,0,,,,,,,,0.350754976273,,,,,,,,,,,,,,,,,,,,,,,,,,,,0.59,0.513643026352,0.000984907150269,0.350754976273,1,a,510.727396965,,,,,,,,,,,,,,,,,,,,,,,,,,,,,,2015_Jun_05_1044,59.8888552548,LearningTask,001,43,
-200,q,200,,,,,,,,,,,,,,,,,0,0,0,0,6,2,26,1,,,,,,,,,,,,,,,,,,,,,,,,510.728979111,q,1,None,0,,,,,,,,0.33442902565,,,,,,,,,,,,,,,,,,,,,,,,,,,,3.75,0.5138630867,0.000977993011475,0.33442902565,1,q,513.730865002,,,,,,,,,,,,,,,,,,,,,,,,,,,,,,2015_Jun_05_1044,59.8888552548,LearningTask,001,43,
200,s,-200,,,,,,,,,,,,,,,,,0,0,0,0,6,3,27,2,,,,,,,,,,,,,,,,,,,,,,,,513.732452154,s,1,None,0,,,,,,,,0.367603063583,,,,,,,,,,,,,,,,,,,,,,,,,,,,2.15,0.513900995255,0.000998973846436,0.367603063583,1,s,516.73379612,,,,,,,,,,,,,,,,,,,,,,,,,,,,,,2015_Jun_05_1044,59.8888552548,LearningTask,001,43,
-200,a,-200,,,,,,,,,,,,,,,,,0,0,0,0,7,0,28,3,,,,,,,,,,,,,,,,,,,,,,,,516.735537052,a,1,None,0,,,,,,,,0.334598064423,,,,,,,,,,,,,,,,,,,,,,,,,,,,2.13,0.514465093613,0.00117802619934,0.334598064423,1,a,519.737011194,,,,,,,,,,,,,,,,,,,,,,,,,,,,,,2015_Jun_05_1044,59.8888552548,LearningTask,001,43,
-200,a,-200,,,,,,,,,,,,,,,,,0,0,0,0,7,1,29,3,,,,,,,,,,,,,,,,,,,,,,,,519.738630056,a,1,None,0,,,,,,,,0.334098815918,,,,,,,,,,,,,,,,,,,,,,,,,,,,3.85,0.514466047287,0.000951051712036,0.334098815918,1,a,522.740660191,,,,,,,,,,,,,,,,,,,,,,,,,,,,,,2015_Jun_05_1044,59.8888552548,LearningTask,001,43,
200,s,-200,,,,,,,,,,,,,,,,,0,0,0,0,7,2,30,2,,,,,,,,,,,,,,,,,,,,,,,,522.742244959,s,1,None,0,,,,,,,,0.350916147232,,,,,,,,,,,,,,,,,,,,,,,,,,,,1.07,0.5139939785,0.0011420249939,0.350916147232,1,s,525.744307995,,,,,,,,,,,,,,,,,,,,,,,,,,,,,,2015_Jun_05_1044,59.8888552548,LearningTask,001,43,
-200,a,-200,,,,,,,,,,,,,,,,,0,0,0,0,7,3,31,3,,,,,,,,,,,,,,,,,,,,,,,,525.745980978,a,1,None,0,,,,,,,,0.384064912796,,,,,,,,,,,,,,,,,,,,,,,,,,,,0.25,0.513857126236,0.00105714797974,0.384064912796,1,a,528.747380018,,,,,,,,,,,,,,,,,,,,,,,,,,,,,,2015_Jun_05_1044,59.8888552548,LearningTask,001,43,
-200,a,-200,,,,,,,,,,,,,,,,,0,0,0,0,8,0,32,3,,,,,,,,,,,,,,,,,,,,,,,,528.749027014,a,1,None,0,,,,,,,,0.451117038727,,,,,,,,,,,,,,,,,,,,,,,,,,,,4.08,0.514334917068,0.000938892364502,0.451117038727,1,a,531.751096964,,,,,,,,,,,,,,,,,,,,,,,,,,,,,,2015_Jun_05_1044,59.8888552548,LearningTask,001,43,
-200,a,-200,,,,,,,,,,,,,,,,,0,0,0,0,8,1,33,3,,,,,,,,,,,,,,,,,,,,,,,,531.752619028,a,1,None,0,,,,,,,,0.384208917618,,,,,,,,,,,,,,,,,,,,,,,,,,,,3.95,0.513978004456,0.00106191635132,0.384208917618,1,a,534.754011154,,,,,,,,,,,,,,,,,,,,,,,,,,,,,,2015_Jun_05_1044,59.8888552548,LearningTask,001,43,
200,s,-200,,,,,,,,,,,,,,,,,0,0,0,0,8,2,34,2,,,,,,,,,,,,,,,,,,,,,,,,534.75562501,s,1,None,0,,,,,,,,0.333926916122,,,,,,,,,,,,,,,,,,,,,,,,,,,,1.78,0.514321804047,0.000974893569946,0.333926916122,1,s,537.757500172,,,,,,,,,,,,,,,,,,,,,,,,,,,,,,2015_Jun_05_1044,59.8888552548,LearningTask,001,43,
200,w,200,,,,,,,,,,,,,,,,,0,0,0,0,8,3,35,0,,,,,,,,,,,,,,,,,,,,,,,,537.759108067,w,1,None,0,,,,,,,,0.317395925522,,,,,,,,,,,,,,,,,,,,,,,,,,,,2.0,0.514172077179,0.00101900100708,0.317395925522,1,w,540.760850191,,,,,,,,,,,,,,,,,,,,,,,,,,,,,,2015_Jun_05_1044,59.8888552548,LearningTask,001,43,
-200,q,200,,,,,,,,,,,,,,,,,0,0,0,0,9,0,36,1,,,,,,,,,,,,,,,,,,,,,,,,540.762413979,q,1,None,0,,,,,,,,0.301278829575,,,,,,,,,,,,,,,,,,,,,,,,,,,,3.77,0.514211177826,0.000972032546997,0.301278829575,1,q,543.764382124,,,,,,,,,,,,,,,,,,,,,,,,,,,,,,2015_Jun_05_1044,59.8888552548,LearningTask,001,43,
-200,a,-200,,,,,,,,,,,,,,,,,0,0,0,0,9,1,37,3,,,,,,,,,,,,,,,,,,,,,,,,543.766018152,a,1,None,0,,,,,,,,0.334194898605,,,,,,,,,,,,,,,,,,,,,,,,,,,,0.44,0.513988018036,0.000895023345947,0.334194898605,1,a,546.767323971,,,,,,,,,,,,,,,,,,,,,,,,,,,,,,2015_Jun_05_1044,59.8888552548,LearningTask,001,43,
200,s,-200,,,,,,,,,,,,,,,,,0,0,0,0,9,2,38,2,,,,,,,,,,,,,,,,,,,,,,,,546.768912077,s,1,None,0,,,,,,,,0.351133108139,,,,,,,,,,,,,,,,,,,,,,,,,,,,1.97,0.514307022095,0.000944137573242,0.351133108139,1,s,549.770979166,,,,,,,,,,,,,,,,,,,,,,,,,,,,,,2015_Jun_05_1044,59.8888552548,LearningTask,001,43,
200,w,200,,,,,,,,,,,,,,,,,0,0,0,0,9,3,39,0,,,,,,,,,,,,,,,,,,,,,,,,549.772471189,w,1,None,0,,,,,,,,0.367433071136,,,,,,,,,,,,,,,,,,,,,,,,,,,,1.79,0.514175891876,0.000978946685791,0.367433071136,1,w,552.774374962,,,,,,,,,,,,,,,,,,,,,,,,,,,,,,2015_Jun_05_1044,59.8888552548,LearningTask,001,43,
-200,q,200,,,,,,,,,,,,,,,,,0,0,0,0,10,0,40,1,,,,,,,,,,,,,,,,,,,,,,,,552.776198149,q,1,None,0,,,,,,,,0.35130405426,,,,,,,,,,,,,,,,,,,,,,,,,,,,0.88,0.513849973679,0.00102996826172,0.35130405426,1,q,555.777402163,,,,,,,,,,,,,,,,,,,,,,,,,,,,,,2015_Jun_05_1044,59.8888552548,LearningTask,001,43,
-200,a,-200,,,,,,,,,,,,,,,,,0,0,0,0,10,1,41,3,,,,,,,,,,,,,,,,,,,,,,,,555.779098034,a,1,None,0,,,,,,,,0.334083080292,,,,,,,,,,,,,,,,,,,,,,,,,,,,0.59,0.514395952225,0.000901937484741,0.334083080292,1,a,558.780797005,,,,,,,,,,,,,,,,,,,,,,,,,,,,,,2015_Jun_05_1044,59.8888552548,LearningTask,001,43,
200,w,200,,,,,,,,,,,,,,,,,0,0,0,0,10,2,42,0,,,,,,,,,,,,,,,,,,,,,,,,558.782369137,w,1,None,0,,,,,,,,0.351019859314,,,,,,,,,,,,,,,,,,,,,,,,,,,,0.69,0.514288187027,0.000946044921875,0.351019859314,1,w,561.784197092,,,,,,,,,,,,,,,,,,,,,,,,,,,,,,2015_Jun_05_1044,59.8888552548,LearningTask,001,43,
200,w,200,,,,,,,,,,,,,,,,,0,0,0,0,10,3,43,0,,,,,,,,,,,,,,,,,,,,,,,,561.785715103,w,1,None,0,,,,,,,,0.384470939636,,,,,,,,,,,,,,,,,,,,,,,,,,,,2.07,0.514169931412,0.00101780891418,0.384470939636,1,w,564.787935972,,,,,,,,,,,,,,,,,,,,,,,,,,,,,,2015_Jun_05_1044,59.8888552548,LearningTask,001,43,
200,s,-200,,,,,,,,,,,,,,,,,0,0,0,0,11,0,44,2,,,,,,,,,,,,,,,,,,,,,,,,564.789451122,s,1,None,0,,,,,,,,0.350566148758,,,,,,,,,,,,,,,,,,,,,,,,,,,,2.16,0.514086961746,0.00101089477539,0.350566148758,1,s,567.790901184,,,,,,,,,,,,,,,,,,,,,,,,,,,,,,2015_Jun_05_1044,59.8888552548,LearningTask,001,43,
200,s,-200,,,,,,,,,,,,,,,,,0,0,0,0,11,1,45,2,,,,,,,,,,,,,,,,,,,,,,,,567.792425156,s,1,None,0,,,,,,,,0.367401123047,,,,,,,,,,,,,,,,,,,,,,,,,,,,0.84,0.514384031296,0.000904083251953,0.367401123047,1,s,570.793931961,,,,,,,,,,,,,,,,,,,,,,,,,,,,,,2015_Jun_05_1044,59.8888552548,LearningTask,001,43,
200,s,-200,,,,,,,,,,,,,,,,,0,0,0,0,11,2,46,2,,,,,,,,,,,,,,,,,,,,,,,,570.795567989,s,1,None,0,,,,,,,,0.333931922913,,,,,,,,,,,,,,,,,,,,,,,,,,,,0.49,0.514705181122,0.000969171524048,0.333931922913,1,s,573.797515154,,,,,,,,,,,,,,,,,,,,,,,,,,,,,,2015_Jun_05_1044,59.8888552548,LearningTask,001,43,
-200,q,200,,,,,,,,,,,,,,,,,0,0,0,0,11,3,47,1,,,,,,,,,,,,,,,,,,,,,,,,573.79917717,q,1,None,0,,,,,,,,0.451518058777,,,,,,,,,,,,,,,,,,,,,,,,,,,,1.82,0.514194965363,0.00098705291748,0.451518058777,1,q,576.800839186,,,,,,,,,,,,,,,,,,,,,,,,,,,,,,2015_Jun_05_1044,59.8888552548,LearningTask,001,43,
-200,q,200,,,,,,,,,,,,,,,,,0,0,0,0,12,0,48,1,,,,,,,,,,,,,,,,,,,,,,,,576.802384138,q,1,None,0,,,,,,,,0.367769956589,,,,,,,,,,,,,,,,,,,,,,,,,,,,1.14,0.514240026474,0.0012149810791,0.367769956589,1,q,579.804429054,,,,,,,,,,,,,,,,,,,,,,,,,,,,,,2015_Jun_05_1044,59.8888552548,LearningTask,001,43,
-200,a,-200,,,,,,,,,,,,,,,,,0,0,0,0,12,1,49,3,,,,,,,,,,,,,,,,,,,,,,,,579.805952072,a,1,None,0,,,,,,,,0.334383010864,,,,,,,,,,,,,,,,,,,,,,,,,,,,2.04,0.514344930649,0.000967025756836,0.334383010864,1,a,582.807713985,,,,,,,,,,,,,,,,,,,,,,,,,,,,,,2015_Jun_05_1044,59.8888552548,LearningTask,001,43,
200,s,-200,,,,,,,,,,,,,,,,,0,0,0,0,12,2,50,2,,,,,,,,,,,,,,,,,,,,,,,,582.809363127,s,1,None,0,,,,,,,,0.350906848907,,,,,,,,,,,,,,,,,,,,,,,,,,,,3.84,0.514014005661,0.000901937484741,0.350906848907,1,s,585.810829163,,,,,,,,,,,,,,,,,,,,,,,,,,,,,,2015_Jun_05_1044,59.8888552548,LearningTask,001,43,
-200,a,-200,,,,,,,,,,,,,,,,,0,0,0,0,12,3,51,3,,,,,,,,,,,,,,,,,,,,,,,,585.812472105,a,1,None,0,,,,,,,,0.317749023438,,,,,,,,,,,,,,,,,,,,,,,,,,,,2.25,0.514215946198,0.000948905944824,0.317749023438,1,a,588.814315081,,,,,,,,,,,,,,,,,,,,,,,,,,,,,,2015_Jun_05_1044,59.8888552548,LearningTask,001,43,
-200,q,200,,,,,,,,,,,,,,,,,0,0,0,0,13,0,52,1,,,,,,,,,,,,,,,,,,,,,,,,588.815824986,q,1,None,0,,,,,,,,0.300737857819,,,,,,,,,,,,,,,,,,,,,,,,,,,,0.52,0.514420032501,0.000988960266113,0.300737857819,1,q,591.817692995,,,,,,,,,,,,,,,,,,,,,,,,,,,,,,2015_Jun_05_1044,59.8888552548,LearningTask,001,43,
-200,q,200,,,,,,,,,,,,,,,,,0,0,0,0,13,1,53,1,,,,,,,,,,,,,,,,,,,,,,,,591.819297075,q,1,None,0,,,,,,,,0.350831985474,,,,,,,,,,,,,,,,,,,,,,,,,,,,2.21,0.514369010925,0.000985145568848,0.350831985474,1,q,594.820754051,,,,,,,,,,,,,,,,,,,,,,,,,,,,,,2015_Jun_05_1044,59.8888552548,LearningTask,001,43,
-200,a,-200,,,,,,,,,,,,,,,,,0,0,0,0,13,2,54,3,,,,,,,,,,,,,,,,,,,,,,,,594.822427988,a,1,None,0,,,,,,,,0.350933074951,,,,,,,,,,,,,,,,,,,,,,,,,,,,2.2,0.514397859573,0.000972986221313,0.350933074951,1,a,597.824472189,,,,,,,,,,,,,,,,,,,,,,,,,,,,,,2015_Jun_05_1044,59.8888552548,LearningTask,001,43,
200,s,-200,,,,,,,,,,,,,,,,,0,0,0,0,13,3,55,2,,,,,,,,,,,,,,,,,,,,,,,,597.826097965,s,1,None,0,,,,,,,,0.350858926773,,,,,,,,,,,,,,,,,,,,,,,,,,,,1.12,0.514026165009,0.000946044921875,0.350858926773,1,s,600.827872992,,,,,,,,,,,,,,,,,,,,,,,,,,,,,,2015_Jun_05_1044,59.8888552548,LearningTask,001,43,
-200,a,-200,,,,,,,,,,,,,,,,,0,0,0,0,14,0,56,3,,,,,,,,,,,,,,,,,,,,,,,,600.829468966,a,1,None,0,,,,,,,,0.351116895676,,,,,,,,,,,,,,,,,,,,,,,,,,,,1.23,0.514117002487,0.000952005386353,0.351116895676,1,a,603.831626177,,,,,,,,,,,,,,,,,,,,,,,,,,,,,,2015_Jun_05_1044,59.8888552548,LearningTask,001,43,
-200,q,200,,,,,,,,,,,,,,,,,0,0,0,0,14,1,57,1,,,,,,,,,,,,,,,,,,,,,,,,603.833149195,q,1,None,0,,,,,,,,0.301091909409,,,,,,,,,,,,,,,,,,,,,,,,,,,,2.1,0.51393699646,0.00113606452942,0.301091909409,1,q,606.834671974,,,,,,,,,,,,,,,,,,,,,,,,,,,,,,2015_Jun_05_1044,59.8888552548,LearningTask,001,43,
-200,q,200,,,,,,,,,,,,,,,,,0,0,0,0,14,2,58,1,,,,,,,,,,,,,,,,,,,,,,,,606.836754084,q,1,None,0,,,,,,,,0.317710876465,,,,,,,,,,,,,,,,,,,,,,,,,,,,0.33,0.513460159302,0.000908136367798,0.317710876465,1,q,609.837818146,,,,,,,,,,,,,,,,,,,,,,,,,,,,,,2015_Jun_05_1044,59.8888552548,LearningTask,001,43,
200,w,200,,,,,,,,,,,,,,,,,0,0,0,0,14,3,59,0,,,,,,,,,,,,,,,,,,,,,,,,609.839354992,w,1,None,0,,,,,,,,0.284361124039,,,,,,,,,,,,,,,,,,,,,,,,,,,,0.95,0.514289855957,0.000952959060669,0.284361124039,1,w,612.841282129,,,,,,,,,,,,,,,,,,,,,,,,,,,,,,2015_Jun_05_1044,59.8888552548,LearningTask,001,43,
200,w,200,,,,,,,,,,,,,,,,,0,0,0,0,15,0,60,0,,,,,,,,,,,,,,,,,,,,,,,,612.842852116,w,1,None,0,,,,,,,,0.317625999451,,,,,,,,,,,,,,,,,,,,,,,,,,,,0.34,0.514493942261,0.000988960266113,0.317625999451,1,w,615.844222069,,,,,,,,,,,,,,,,,,,,,,,,,,,,,,2015_Jun_05_1044,59.8888552548,LearningTask,001,43,
200,s,-200,,,,,,,,,,,,,,,,,0,0,0,0,15,1,61,2,,,,,,,,,,,,,,,,,,,,,,,,615.845937967,s,1,None,0,,,,,,,,0.351250886917,,,,,,,,,,,,,,,,,,,,,,,,,,,,3.75,0.514516115189,0.000895977020264,0.351250886917,1,s,618.848178148,,,,,,,,,,,,,,,,,,,,,,,,,,,,,,2015_Jun_05_1044,59.8888552548,LearningTask,001,43,
200,w,200,,,,,,,,,,,,,,,,,0,0,0,0,15,2,62,0,,,,,,,,,,,,,,,,,,,,,,,,618.849967003,w,1,None,0,,,,,,,,0.334069013596,,,,,,,,,,,,,,,,,,,,,,,,,,,,0.62,0.513715028763,0.000895023345947,0.334069013596,1,w,621.851251125,,,,,,,,,,,,,,,,,,,,,,,,,,,,,,2015_Jun_05_1044,59.8888552548,LearningTask,001,43,
-200,q,200,,,,,,,,,,,,,,,,,0,0,0,0,15,3,63,1,,,,,,,,,,,,,,,,,,,,,,,,621.852847099,q,1,None,0,,,,,,,,0.317432880402,,,,,,,,,,,,,,,,,,,,,,,,,,,,1.17,0.5142121315,0.000962972640991,0.317432880402,1,q,624.854699135,,,,,,,,,,,,,,,,,,,,,,,,,,,,,,2015_Jun_05_1044,59.8888552548,LearningTask,001,43,
200,w,200,,,,,,,,,,,,,,,,,0,0,0,0,16,0,64,0,,,,,,,,,,,,,,,,,,,,,,,,624.856207132,w,1,None,0,,,,,,,,0.333667993546,,,,,,,,,,,,,,,,,,,,,,,,,,,,2.15,0.514652967453,0.00112891197205,0.333667993546,1,w,627.857764959,,,,,,,,,,,,,,,,,,,,,,,,,,,,,,2015_Jun_05_1044,59.8888552548,LearningTask,001,43,
200,s,-200,,,,,,,,,,,,,,,,,0,0,0,0,16,1,65,2,,,,,,,,,,,,,,,,,,,,,,,,627.859485149,s,1,None,0,,,,,,,,0.350742101669,,,,,,,,,,,,,,,,,,,,,,,,,,,,1.16,0.514663934708,0.000933885574341,0.350742101669,1,s,630.86106205,,,,,,,,,,,,,,,,,,,,,,,,,,,,,,2015_Jun_05_1044,59.8888552548,LearningTask,001,43,
-200,q,200,,,,,,,,,,,,,,,,,0,0,0,0,16,2,66,1,,,,,,,,,,,,,,,,,,,,,,,,630.862855196,q,1,None,0,,,,,,,,0.350472927094,,,,,,,,,,,,,,,,,,,,,,,,,,,,0.45,0.514678955078,0.00104784965515,0.350472927094,1,q,633.864705086,,,,,,,,,,,,,,,,,,,,,,,,,,,,,,2015_Jun_05_1044,59.8888552548,LearningTask,001,43,
200,w,200,,,,,,,,,,,,,,,,,0,0,0,0,16,3,67,0,,,,,,,,,,,,,,,,,,,,,,,,633.866404057,w,1,None,0,,,,,,,,0.33417391777,,,,,,,,,,,,,,,,,,,,,,,,,,,,0.92,0.514147996902,0.000962018966675,0.33417391777,1,w,636.868044138,,,,,,,,,,,,,,,,,,,,,,,,,,,,,,2015_Jun_05_1044,59.8888552548,LearningTask,001,43,
200,w,200,,,,,,,,,,,,,,,,,0,0,0,0,17,0,68,0,,,,,,,,,,,,,,,,,,,,,,,,636.869590998,w,1,None,0,,,,,,,,0.300722122192,,,,,,,,,,,,,,,,,,,,,,,,,,,,3.79,0.514338970184,0.00110411643982,0.300722122192,1,w,639.871684074,,,,,,,,,,,,,,,,,,,,,,,,,,,,,,2015_Jun_05_1044,59.8888552548,LearningTask,001,43,
200,w,200,,,,,,,,,,,,,,,,,0,0,0,0,17,1,69,0,,,,,,,,,,,,,,,,,,,,,,,,639.873212099,w,1,None,0,,,,,,,,0.300643920898,,,,,,,,,,,,,,,,,,,,,,,,,,,,0.68,0.514070034027,0.000972032546997,0.300643920898,1,w,642.874515057,,,,,,,,,,,,,,,,,,,,,,,,,,,,,,2015_Jun_05_1044,59.8888552548,LearningTask,001,43,
200,w,200,,,,,,,,,,,,,,,,,0,0,0,0,17,2,70,0,,,,,,,,,,,,,,,,,,,,,,,,642.876132011,w,1,None,0,,,,,,,,0.334445953369,,,,,,,,,,,,,,,,,,,,,,,,,,,,2.08,0.514444112778,0.000959157943726,0.334445953369,1,w,645.877941132,,,,,,,,,,,,,,,,,,,,,,,,,,,,,,2015_Jun_05_1044,59.8888552548,LearningTask,001,43,
-200,a,-200,,,,,,,,,,,,,,,,,0,0,0,0,17,3,71,3,,,,,,,,,,,,,,,,,,,,,,,,645.879522085,a,1,None,0,,,,,,,,0.367574214935,,,,,,,,,,,,,,,,,,,,,,,,,,,,0.55,0.514535903931,0.000947952270508,0.367574214935,1,a,648.881477118,,,,,,,,,,,,,,,,,,,,,,,,,,,,,,2015_Jun_05_1044,59.8888552548,LearningTask,001,43,
200,w,200,,,,,,,,,,,,,,,,,0,0,0,0,18,0,72,0,,,,,,,,,,,,,,,,,,,,,,,,648.882972002,w,1,None,0,,,,,,,,0.30092716217,,,,,,,,,,,,,,,,,,,,,,,,,,,,1.25,0.514380931854,0.00106501579285,0.30092716217,1,w,651.885251999,,,,,,,,,,,,,,,,,,,,,,,,,,,,,,2015_Jun_05_1044,59.8888552548,LearningTask,001,43,
200,w,200,,,,,,,,,,,,,,,,,0,0,0,0,18,1,73,0,,,,,,,,,,,,,,,,,,,,,,,,651.886871099,w,1,None,0,,,,,,,,0.30060505867,,,,,,,,,,,,,,,,,,,,,,,,,,,,3.87,0.513823986053,0.00104188919067,0.30060505867,1,w,654.887977123,,,,,,,,,,,,,,,,,,,,,,,,,,,,,,2015_Jun_05_1044,59.8888552548,LearningTask,001,43,
200,w,200,,,,,,,,,,,,,,,,,0,0,0,0,18,2,74,0,,,,,,,,,,,,,,,,,,,,,,,,654.889595032,w,1,None,0,,,,,,,,0.317782878876,,,,,,,,,,,,,,,,,,,,,,,,,,,,1.06,0.514293909073,0.000937938690186,0.317782878876,1,w,657.891396046,,,,,,,,,,,,,,,,,,,,,,,,,,,,,,2015_Jun_05_1044,59.8888552548,LearningTask,001,43,
200,s,-200,,,,,,,,,,,,,,,,,0,0,0,0,18,3,75,2,,,,,,,,,,,,,,,,,,,,,,,,657.892995119,s,1,None,0,,,,,,,,0.367576122284,,,,,,,,,,,,,,,,,,,,,,,,,,,,1.14,0.514257907867,0.000927925109863,0.367576122284,1,s,660.894809961,,,,,,,,,,,,,,,,,,,,,,,,,,,,,,2015_Jun_05_1044,59.8888552548,LearningTask,001,43,
-200,q,200,,,,,,,,,,,,,,,,,0,0,0,0,19,0,76,1,,,,,,,,,,,,,,,,,,,,,,,,660.896407127,q,1,None,0,,,,,,,,0.35107088089,,,,,,,,,,,,,,,,,,,,,,,,,,,,0.57,0.514364004135,0.00119185447693,0.35107088089,1,q,663.898478985,,,,,,,,,,,,,,,,,,,,,,,,,,,,,,2015_Jun_05_1044,59.8888552548,LearningTask,001,43,
200,w,200,,,,,,,,,,,,,,,,,0,0,0,0,19,1,77,0,,,,,,,,,,,,,,,,,,,,,,,,663.900042057,w,1,None,0,,,,,,,,0.284008979797,,,,,,,,,,,,,,,,,,,,,,,,,,,,0.81,0.514070034027,0.0010199546814,0.284008979797,1,w,666.901489973,,,,,,,,,,,,,,,,,,,,,,,,,,,,,,2015_Jun_05_1044,59.8888552548,LearningTask,001,43,
-200,q,200,,,,,,,,,,,,,,,,,0,0,0,0,19,2,78,1,,,,,,,,,,,,,,,,,,,,,,,,666.903131008,q,1,None,0,,,,,,,,0.300939083099,,,,,,,,,,,,,,,,,,,,,,,,,,,,1.75,0.514218091965,0.000952959060669,0.300939083099,1,q,669.904783964,,,,,,,,,,,,,,,,,,,,,,,,,,,,,,2015_Jun_05_1044,59.8888552548,LearningTask,001,43,
-200,a,-200,,,,,,,,,,,,,,,,,0,0,0,0,19,3,79,3,,,,,,,,,,,,,,,,,,,,,,,,669.906322002,a,1,None,0,,,,,,,,0.351045131683,,,,,,,,,,,,,,,,,,,,,,,,,,,,4.22,0.51442193985,0.000962972640991,0.351045131683,1,a,672.908150196,,,,,,,,,,,,,,,,,,,,,,,,,,,,,,2015_Jun_05_1044,59.8888552548,LearningTask,001,43,
-200,q,200,,,,,,,,,,,,,,,,,0,0,0,0,20,0,80,1,,,,,,,,,,,,,,,,,,,,,,,,672.909808159,q,1,None,0,,,,,,,,0.31785607338,,,,,,,,,,,,,,,,,,,,,,,,,,,,0.73,0.514113903046,0.000916004180908,0.31785607338,1,q,675.912539005,,,,,,,,,,,,,,,,,,,,,,,,,,,,,,2015_Jun_05_1044,59.8888552548,LearningTask,001,43,
200,s,-200,,,,,,,,,,,,,,,,,0,0,0,0,20,1,81,2,,,,,,,,,,,,,,,,,,,,,,,,675.914163113,s,1,None,0,,,,,,,,0.350828170776,,,,,,,,,,,,,,,,,,,,,,,,,,,,3.84,0.51340508461,0.000941038131714,0.350828170776,1,s,678.915408134,,,,,,,,,,,,,,,,,,,,,,,,,,,,,,2015_Jun_05_1044,59.8888552548,LearningTask,001,43,
-200,a,-200,,,,,,,,,,,,,,,,,0,0,0,0,20,2,82,3,,,,,,,,,,,,,,,,,,,,,,,,684.921935081,a,1,None,0,,,,,,,,0.334367990494,,,,,,,,,,,,,,,,,,,,,,,,,,,,1.97,0.513807058334,0.00106191635132,0.334439992905,0,q,681.919044018,1.99,0.514986038208,0.00100302696228,0.350644111633,0,q,684.921612024,2.12,0.515456199646,0.000989198684692,0.334367990494,1,a,687.925430059,,,,,,,,,,,,,,,,2015_Jun_05_1044,59.8888552548,LearningTask,001,43,
200,s,-200,,,,,,,,,,,,,,,,,0,0,0,0,20,3,83,2,,,,,,,,,,,,,,,,,,,,,,,,687.927091122,s,1,None,0,,,,,,,,0.401111125946,,,,,,,,,,,,,,,,,,,,,,,,,,,,4.03,0.513949871063,0.000993967056274,0.401111125946,1,s,690.928378105,,,,,,,,,,,,,,,,,,,,,,,,,,,,,,2015_Jun_05_1044,59.8888552548,LearningTask,001,43,
200,w,200,,,,,,,,,,,,,,,,,0,0,0,0,21,0,84,0,,,,,,,,,,,,,,,,,,,,,,,,690.930080175,w,1,None,0,,,,,,,,0.334105014801,,,,,,,,,,,,,,,,,,,,,,,,,,,,1.91,0.514189958572,0.000950813293457,0.334105014801,1,w,693.932420015,,,,,,,,,,,,,,,,,,,,,,,,,,,,,,2015_Jun_05_1044,59.8888552548,LearningTask,001,43,
-200,a,-200,,,,,,,,,,,,,,,,,0,0,0,0,21,1,85,3,,,,,,,,,,,,,,,,,,,,,,,,693.934038162,a,1,None,0,,,,,,,,0.417513132095,,,,,,,,,,,,,,,,,,,,,,,,,,,,1.07,0.513561964035,0.00100207328796,0.417513132095,1,a,696.935204983,,,,,,,,,,,,,,,,,,,,,,,,,,,,,,2015_Jun_05_1044,59.8888552548,LearningTask,001,43,
200,s,-200,,,,,,,,,,,,,,,,,0,0,0,0,21,2,86,2,,,,,,,,,,,,,,,,,,,,,,,,696.936947107,s,1,None,0,,,,,,,,0.434802055359,,,,,,,,,,,,,,,,,,,,,,,,,,,,3.78,0.513924837112,0.000936985015869,0.434802055359,1,s,699.938322067,,,,,,,,,,,,,,,,,,,,,,,,,,,,,,2015_Jun_05_1044,59.8888552548,LearningTask,001,43,
-200,q,200,,,,,,,,,,,,,,,,,0,0,0,0,21,3,87,1,,,,,,,,,,,,,,,,,,,,,,,,699.939846039,q,1,None,0,,,,,,,,0.284362792969,,,,,,,,,,,,,,,,,,,,,,,,,,,,0.93,0.51451086998,0.000963926315308,0.284362792969,1,q,702.94198513,,,,,,,,,,,,,,,,,,,,,,,,,,,,,,2015_Jun_05_1044,59.8888552548,LearningTask,001,43,
-200,a,-200,,,,,,,,,,,,,,,,,0,0,0,0,22,0,88,3,,,,,,,,,,,,,,,,,,,,,,,,702.943547964,a,1,None,0,,,,,,,,0.351427078247,,,,,,,,,,,,,,,,,,,,,,,,,,,,0.46,0.51401591301,0.000972986221313,0.351427078247,1,a,705.945557117,,,,,,,,,,,,,,,,,,,,,,,,,,,,,,2015_Jun_05_1044,59.8888552548,LearningTask,001,43,
-200,a,-200,,,,,,,,,,,,,,,,,0,0,0,0,22,1,89,3,,,,,,,,,,,,,,,,,,,,,,,,705.947254181,a,1,None,0,,,,,,,,0.334190130234,,,,,,,,,,,,,,,,,,,,,,,,,,,,0.35,0.513896942139,0.000952959060669,0.334190130234,1,a,708.94865799,,,,,,,,,,,,,,,,,,,,,,,,,,,,,,2015_Jun_05_1044,59.8888552548,LearningTask,001,43,
-200,q,200,,,,,,,,,,,,,,,,,0,0,0,0,22,2,90,1,,,,,,,,,,,,,,,,,,,,,,,,708.950213194,q,1,None,0,,,,,,,,0.434472084045,,,,,,,,,,,,,,,,,,,,,,,,,,,,1.19,0.514312982559,0.000941038131714,0.434472084045,1,q,711.951629162,,,,,,,,,,,,,,,,,,,,,,,,,,,,,,2015_Jun_05_1044,59.8888552548,LearningTask,001,43,
-200,a,-200,,,,,,,,,,,,,,,,,0,0,0,0,22,3,91,3,,,,,,,,,,,,,,,,,,,,,,,,711.953164101,a,1,None,0,,,,,,,,0.334265947342,,,,,,,,,,,,,,,,,,,,,,,,,,,,4.09,0.514635801315,0.000887870788574,0.334265947342,1,a,714.955027103,,,,,,,,,,,,,,,,,,,,,,,,,,,,,,2015_Jun_05_1044,59.8888552548,LearningTask,001,43,
200,w,200,,,,,,,,,,,,,,,,,0,0,0,0,23,0,92,0,,,,,,,,,,,,,,,,,,,,,,,,714.956580162,w,1,None,0,,,,,,,,0.300843000412,,,,,,,,,,,,,,,,,,,,,,,,,,,,2.01,0.514408111572,0.000952959060669,0.300843000412,1,w,717.958558083,,,,,,,,,,,,,,,,,,,,,,,,,,,,,,2015_Jun_05_1044,59.8888552548,LearningTask,001,43,
200,w,200,,,,,,,,,,,,,,,,,0,0,0,0,23,1,93,0,,,,,,,,,,,,,,,,,,,,,,,,717.96005702,w,1,None,0,,,,,,,,0.350759983063,,,,,,,,,,,,,,,,,,,,,,,,,,,,3.99,0.514514923096,0.000988960266113,0.350759983063,1,w,720.961953163,,,,,,,,,,,,,,,,,,,,,,,,,,,,,,2015_Jun_05_1044,59.8888552548,LearningTask,001,43,
-200,a,-200,,,,,,,,,,,,,,,,,0,0,0,0,23,2,94,3,,,,,,,,,,,,,,,,,,,,,,,,720.963473082,a,1,None,0,,,,,,,,0.484498977661,,,,,,,,,,,,,,,,,,,,,,,,,,,,3.81,0.514445066452,0.000895977020264,0.484498977661,1,a,723.96502614,,,,,,,,,,,,,,,,,,,,,,,,,,,,,,2015_Jun_05_1044,59.8888552548,LearningTask,001,43,
-200,q,200,,,,,,,,,,,,,,,,,0,0,0,0,23,3,95,1,,,,,,,,,,,,,,,,,,,,,,,,723.966614008,q,1,None,0,,,,,,,,0.367401123047,,,,,,,,,,,,,,,,,,,,,,,,,,,,0.86,0.514686107635,0.000900030136108,0.367401123047,1,q,726.968799114,,,,,,,,,,,,,,,,,,,,,,,,,,,,,,2015_Jun_05_1044,59.8888552548,LearningTask,001,43,
200,s,-200,,,,,,,,,,,,,,,,,0,0,0,0,24,0,96,2,,,,,,,,,,,,,,,,,,,,,,,,726.970349073,s,1,None,0,,,,,,,,0.384505033493,,,,,,,,,,,,,,,,,,,,,,,,,,,,2.0,0.514065027237,0.000982999801636,0.384505033493,1,s,729.972047091,,,,,,,,,,,,,,,,,,,,,,,,,,,,,,2015_Jun_05_1044,59.8888552548,LearningTask,001,43,
-200,q,200,,,,,,,,,,,,,,,,,0,0,0,0,24,1,97,1,,,,,,,,,,,,,,,,,,,,,,,,729.973718166,q,1,None,0,,,,,,,,0.384234905243,,,,,,,,,,,,,,,,,,,,,,,,,,,,2.14,0.514235973358,0.000949859619141,0.384234905243,1,q,732.975607157,,,,,,,,,,,,,,,,,,,,,,,,,,,,,,2015_Jun_05_1044,59.8888552548,LearningTask,001,43,
200,w,200,,,,,,,,,,,,,,,,,0,0,0,0,24,2,98,0,,,,,,,,,,,,,,,,,,,,,,,,732.977281094,w,1,None,0,,,,,,,,0.334411144257,,,,,,,,,,,,,,,,,,,,,,,,,,,,1.11,0.513857126236,0.00100302696228,0.334411144257,1,w,735.978821039,,,,,,,,,,,,,,,,,,,,,,,,,,,,,,2015_Jun_05_1044,59.8888552548,LearningTask,001,43,
-200,q,200,,,,,,,,,,,,,,,,,0,0,0,0,24,3,99,1,,,,,,,,,,,,,,,,,,,,,,,,735.980360985,q,1,None,0,,,,,,,,0.317471981049,,,,,,,,,,,,,,,,,,,,,,,,,,,,3.77,0.514230966568,0.000895023345947,0.317471981049,1,q,738.98193717,,,,,,,,,,,,,,,,,,,,,,,,,,,,,,2015_Jun_05_1044,59.8888552548,LearningTask,001,43,
,,,,,,,,,,,,,,,,,,,0,0,0,0,,,,,,,,,,,,,,,,,,,,,,,,,,,,,,,,,,,,,,,,,,,,,,,,,,,,,,,,,,,,,,,,,,,,,,,,,,,,,,,,,,,,,,,,,9,24.2676608562,,,,,,,,,,,,,,2015_Jun_05_1044,59.8888552548,LearningTask,001,43,
-200,q,200,,,,,,,,,,,,,,,,,1,0,1,0,0,0,0,1,,,,,,,,,,,,,,,,,,,,,,,,766.863864183,q,1,None,0,,,,,,,,0.350868940353,,,,,,,,,,,,,,,,,,,,,,,,,,,,4.23,0.509208917618,0.000954866409302,0.484380960464,0,a,766.863497019,3.92,0.515297889709,0.000962018966675,0.350868940353,1,q,769.867407084,,,,,,,,,,,,,,,,,,,,,,,2015_Jun_05_1044,59.8888552548,LearningTask,001,43,
200,w,200,,,,,,,,,,,,,,,,,1,0,1,0,0,1,1,0,,,,,,,,,,,,,,,,,,,,,,,,769.869122028,w,1,None,0,,,,,,,,0.350645065308,,,,,,,,,,,,,,,,,,,,,,,,,,,,0.63,0.513381004333,0.000948905944824,0.350645065308,1,w,772.86997509,,,,,,,,,,,,,,,,,,,,,,,,,,,,,,2015_Jun_05_1044,59.8888552548,LearningTask,001,43,
-200,a,-200,,,,,,,,,,,,,,,,,1,0,1,0,0,2,2,3,,,,,,,,,,,,,,,,,,,,,,,,772.871646166,a,1,None,0,,,,,,,,0.618010997772,,,,,,,,,,,,,,,,,,,,,,,,,,,,0.75,0.514474868774,0.000910997390747,0.618010997772,1,a,775.873108149,,,,,,,,,,,,,,,,,,,,,,,,,,,,,,2015_Jun_05_1044,59.8888552548,LearningTask,001,43,
-200,a,-200,,,,,,,,,,,,,,,,,1,0,1,0,0,3,3,3,,,,,,,,,,,,,,,,,,,,,,,,775.874615192,a,1,None,0,,,,,,,,0.350855827332,,,,,,,,,,,,,,,,,,,,,,,,,,,,3.82,0.514565944672,0.000952959060669,0.350855827332,1,a,778.876556158,,,,,,,,,,,,,,,,,,,,,,,,,,,,,,2015_Jun_05_1044,59.8888552548,LearningTask,001,43,
-200,a,-200,,,,,,,,,,,,,,,,,1,0,1,0,1,0,4,3,,,,,,,,,,,,,,,,,,,,,,,,778.878091097,a,1,None,0,,,,,,,,0.384636878967,,,,,,,,,,,,,,,,,,,,,,,,,,,,0.95,0.514219999313,0.00102496147156,0.384636878967,1,a,781.880395174,,,,,,,,,,,,,,,,,,,,,,,,,,,,,,2015_Jun_05_1044,59.8888552548,LearningTask,001,43,
200,w,200,,,,,,,,,,,,,,,,,1,0,1,0,1,1,5,0,,,,,,,,,,,,,,,,,,,,,,,,781.882100105,w,1,None,0,,,,,,,,0.367538928986,,,,,,,,,,,,,,,,,,,,,,,,,,,,0.96,0.513746023178,0.00112795829773,0.367538928986,1,w,784.883764029,,,,,,,,,,,,,,,,,,,,,,,,,,,,,,2015_Jun_05_1044,59.8888552548,LearningTask,001,43,
-200,q,200,,,,,,,,,,,,,,,,,1,0,1,0,1,2,6,1,,,,,,,,,,,,,,,,,,,,,,,,784.885369062,q,1,None,0,,,,,,,,0.300575017929,,,,,,,,,,,,,,,,,,,,,,,,,,,,0.59,0.51432800293,0.000916004180908,0.300575017929,1,q,787.886615038,,,,,,,,,,,,,,,,,,,,,,,,,,,,,,2015_Jun_05_1044,59.8888552548,LearningTask,001,43,
200,w,200,,,,,,,,,,,,,,,,,1,0,1,0,1,3,7,0,,,,,,,,,,,,,,,,,,,,,,,,790.890550137,w,1,None,0,,,,,,,,0.367463111877,,,,,,,,,,,,,,,,,,,,,,,,,,,,0.46,0.514672040939,0.000943899154663,0.317557096481,0,s,790.890223026,0.46,0.515348911285,0.00103497505188,0.367463111877,1,w,793.893834114,,,,,,,,,,,,,,,,,,,,,,,2015_Jun_05_1044,59.8888552548,LearningTask,001,43,
-200,q,200,,,,,,,,,,,,,,,,,1,0,1,0,2,0,8,1,,,,,,,,,,,,,,,,,,,,,,,,793.895408154,q,1,None,0,,,,,,,,0.317933082581,,,,,,,,,,,,,,,,,,,,,,,,,,,,1.75,0.513830900192,0.000958919525146,0.317933082581,1,q,796.896733046,,,,,,,,,,,,,,,,,,,,,,,,,,,,,,2015_Jun_05_1044,59.8888552548,LearningTask,001,43,
-200,q,200,,,,,,,,,,,,,,,,,1,0,1,0,2,1,9,1,,,,,,,,,,,,,,,,,,,,,,,,796.89831996,q,1,None,0,,,,,,,,0.53419303894,,,,,,,,,,,,,,,,,,,,,,,,,,,,3.93,0.5144739151,0.000916004180908,0.53419303894,1,q,799.900396109,,,,,,,,,,,,,,,,,,,,,,,,,,,,,,2015_Jun_05_1044,59.8888552548,LearningTask,001,43,
-200,q,200,,,,,,,,,,,,,,,,,1,0,1,0,2,2,10,1,,,,,,,,,,,,,,,,,,,,,,,,799.902069092,q,1,None,0,,,,,,,,0.367281198502,,,,,,,,,,,,,,,,,,,,,,,,,,,,0.93,0.514222860336,0.000941038131714,0.367281198502,1,q,802.903378963,,,,,,,,,,,,,,,,,,,,,,,,,,,,,,2015_Jun_05_1044,59.8888552548,LearningTask,001,43,
-200,a,-200,,,,,,,,,,,,,,,,,1,0,1,0,2,3,11,3,,,,,,,,,,,,,,,,,,,,,,,,802.904895067,a,1,None,0,,,,,,,,0.433833122253,,,,,,,,,,,,,,,,,,,,,,,,,,,,4.24,0.514930963516,0.000904083251953,0.433833122253,1,a,805.906807184,,,,,,,,,,,,,,,,,,,,,,,,,,,,,,2015_Jun_05_1044,59.8888552548,LearningTask,001,43,
200,s,-200,,,,,,,,,,,,,,,,,1,0,1,0,3,0,12,2,,,,,,,,,,,,,,,,,,,,,,,,805.908424139,s,1,None,0,,,,,,,,0.367403030396,,,,,,,,,,,,,,,,,,,,,,,,,,,,1.1,0.514219999313,0.000948905944824,0.367403030396,1,s,808.910605192,,,,,,,,,,,,,,,,,,,,,,,,,,,,,,2015_Jun_05_1044,59.8888552548,LearningTask,001,43,
-200,a,-200,,,,,,,,,,,,,,,,,1,0,1,0,3,1,13,3,,,,,,,,,,,,,,,,,,,,,,,,808.912142038,a,1,None,0,,,,,,,,0.367834806442,,,,,,,,,,,,,,,,,,,,,,,,,,,,4.11,0.514010190964,0.000946044921875,0.367834806442,1,a,811.913382053,,,,,,,,,,,,,,,,,,,,,,,,,,,,,,2015_Jun_05_1044,59.8888552548,LearningTask,001,43,
-200,a,-200,,,,,,,,,,,,,,,,,1,0,1,0,3,2,14,3,,,,,,,,,,,,,,,,,,,,,,,,811.91508007,a,1,None,0,,,,,,,,0.36732506752,,,,,,,,,,,,,,,,,,,,,,,,,,,,1.2,0.514497995377,0.00103807449341,0.36732506752,1,a,814.917181969,,,,,,,,,,,,,,,,,,,,,,,,,,,,,,2015_Jun_05_1044,59.8888552548,LearningTask,001,43,
200,w,200,,,,,,,,,,,,,,,,,1,0,1,0,3,3,15,0,,,,,,,,,,,,,,,,,,,,,,,,814.918848991,w,1,None,0,,,,,,,,0.350845098495,,,,,,,,,,,,,,,,,,,,,,,,,,,,4.06,0.514002799988,0.000932931900024,0.350845098495,1,w,817.920294046,,,,,,,,,,,,,,,,,,,,,,,,,,,,,,2015_Jun_05_1044,59.8888552548,LearningTask,001,43,
-200,a,-200,,,,,,,,,,,,,,,,,1,0,1,0,4,0,16,3,,,,,,,,,,,,,,,,,,,,,,,,817.921838045,a,1,None,0,,,,,,,,0.384089946747,,,,,,,,,,,,,,,,,,,,,,,,,,,,0.39,0.514178991318,0.000936031341553,0.384089946747,1,a,820.923933983,,,,,,,,,,,,,,,,,,,,,,,,,,,,,,2015_Jun_05_1044,59.8888552548,LearningTask,001,43,
200,s,-200,,,,,,,,,,,,,,,,,1,0,1,0,4,1,17,2,,,,,,,,,,,,,,,,,,,,,,,,820.925471067,s,1,None,0,,,,,,,,0.384394884109,,,,,,,,,,,,,,,,,,,,,,,,,,,,4.12,0.513673067093,0.000990867614746,0.384394884109,1,s,823.926839113,,,,,,,,,,,,,,,,,,,,,,,,,,,,,,2015_Jun_05_1044,59.8888552548,LearningTask,001,43,
200,s,-200,,,,,,,,,,,,,,,,,1,0,1,0,4,2,18,2,,,,,,,,,,,,,,,,,,,,,,,,823.928653002,s,1,None,0,,,,,,,,0.383950948715,,,,,,,,,,,,,,,,,,,,,,,,,,,,3.91,0.514496088028,0.000883102416992,0.383950948715,1,s,826.93021512,,,,,,,,,,,,,,,,,,,,,,,,,,,,,,2015_Jun_05_1044,59.8888552548,LearningTask,001,43,
-200,q,200,,,,,,,,,,,,,,,,,1,0,1,0,4,3,19,1,,,,,,,,,,,,,,,,,,,,,,,,826.931807041,q,1,None,0,,,,,,,,0.350902080536,,,,,,,,,,,,,,,,,,,,,,,,,,,,1.78,0.514380931854,0.00141000747681,0.350902080536,1,q,829.933532,,,,,,,,,,,,,,,,,,,,,,,,,,,,,,2015_Jun_05_1044,59.8888552548,LearningTask,001,43,
200,s,-200,,,,,,,,,,,,,,,,,1,0,1,0,5,0,20,2,,,,,,,,,,,,,,,,,,,,,,,,829.935065031,s,1,None,0,,,,,,,,0.367936134338,,,,,,,,,,,,,,,,,,,,,,,,,,,,0.44,0.514326810837,0.000957012176514,0.367936134338,1,s,832.937076092,,,,,,,,,,,,,,,,,,,,,,,,,,,,,,2015_Jun_05_1044,59.8888552548,LearningTask,001,43,
-200,q,200,,,,,,,,,,,,,,,,,1,0,1,0,5,1,21,1,,,,,,,,,,,,,,,,,,,,,,,,832.938781977,q,1,None,0,,,,,,,,0.384600877762,,,,,,,,,,,,,,,,,,,,,,,,,,,,1.23,0.514099121094,0.0010621547699,0.384600877762,1,q,835.940733194,,,,,,,,,,,,,,,,,,,,,,,,,,,,,,2015_Jun_05_1044,59.8888552548,LearningTask,001,43,
-200,q,200,,,,,,,,,,,,,,,,,1,0,1,0,5,2,22,1,,,,,,,,,,,,,,,,,,,,,,,,835.942268133,q,1,None,0,,,,,,,,0.317571878433,,,,,,,,,,,,,,,,,,,,,,,,,,,,2.06,0.514122962952,0.000869989395142,0.317571878433,1,q,838.943566084,,,,,,,,,,,,,,,,,,,,,,,,,,,,,,2015_Jun_05_1044,59.8888552548,LearningTask,001,43,
200,s,-200,,,,,,,,,,,,,,,,,1,0,1,0,5,3,23,2,,,,,,,,,,,,,,,,,,,,,,,,838.945103168,s,1,None,0,,,,,,,,0.400635004044,,,,,,,,,,,,,,,,,,,,,,,,,,,,1.97,0.514959096909,0.000920057296753,0.400635004044,1,s,841.94698,,,,,,,,,,,,,,,,,,,,,,,,,,,,,,2015_Jun_05_1044,59.8888552548,LearningTask,001,43,
200,s,-200,,,,,,,,,,,,,,,,,1,0,1,0,6,0,24,2,,,,,,,,,,,,,,,,,,,,,,,,841.948444128,s,1,None,0,,,,,,,,0.368098020554,,,,,,,,,,,,,,,,,,,,,,,,,,,,0.3,0.514377117157,0.000925064086914,0.368098020554,1,s,844.950737,,,,,,,,,,,,,,,,,,,,,,,,,,,,,,2015_Jun_05_1044,59.8888552548,LearningTask,001,43,
-200,q,200,,,,,,,,,,,,,,,,,1,0,1,0,6,1,25,1,,,,,,,,,,,,,,,,,,,,,,,,844.952327967,q,1,None,0,,,,,,,,0.351026058197,,,,,,,,,,,,,,,,,,,,,,,,,,,,1.03,0.514289140701,0.000960111618042,0.351026058197,1,q,847.953706026,,,,,,,,,,,,,,,,,,,,,,,,,,,,,,2015_Jun_05_1044,59.8888552548,LearningTask,001,43,
-200,a,-200,,,,,,,,,,,,,,,,,1,0,1,0,6,2,26,3,,,,,,,,,,,,,,,,,,,,,,,,847.955505133,a,1,None,0,,,,,,,,0.401294946671,,,,,,,,,,,,,,,,,,,,,,,,,,,,0.26,0.514252901077,0.000869989395142,0.401294946671,1,a,850.956997156,,,,,,,,,,,,,,,,,,,,,,,,,,,,,,2015_Jun_05_1044,59.8888552548,LearningTask,001,43,
-200,a,-200,,,,,,,,,,,,,,,,,1,0,1,0,6,3,27,3,,,,,,,,,,,,,,,,,,,,,,,,850.95857811,a,1,None,0,,,,,,,,0.400461912155,,,,,,,,,,,,,,,,,,,,,,,,,,,,1.09,0.514938116074,0.00119209289551,0.400461912155,1,a,853.960323095,,,,,,,,,,,,,,,,,,,,,,,,,,,,,,2015_Jun_05_1044,59.8888552548,LearningTask,001,43,
200,s,-200,,,,,,,,,,,,,,,,,1,0,1,0,7,0,28,2,,,,,,,,,,,,,,,,,,,,,,,,853.961897135,s,1,None,0,,,,,,,,0.383950948715,,,,,,,,,,,,,,,,,,,,,,,,,,,,1.93,0.514454126358,0.00102305412292,0.383950948715,1,s,856.964262962,,,,,,,,,,,,,,,,,,,,,,,,,,,,,,2015_Jun_05_1044,59.8888552548,LearningTask,001,43,
-200,a,-200,,,,,,,,,,,,,,,,,1,0,1,0,7,1,29,3,,,,,,,,,,,,,,,,,,,,,,,,856.965872049,a,1,None,0,,,,,,,,0.434239149094,,,,,,,,,,,,,,,,,,,,,,,,,,,,0.78,0.513849973679,0.000941038131714,0.434239149094,1,a,859.967573166,,,,,,,,,,,,,,,,,,,,,,,,,,,,,,2015_Jun_05_1044,59.8888552548,LearningTask,001,43,
200,w,200,,,,,,,,,,,,,,,,,1,0,1,0,7,2,30,0,,,,,,,,,,,,,,,,,,,,,,,,859.969230175,w,1,None,0,,,,,,,,0.317211151123,,,,,,,,,,,,,,,,,,,,,,,,,,,,1.21,0.514227867126,0.000932931900024,0.317211151123,1,w,862.970582962,,,,,,,,,,,,,,,,,,,,,,,,,,,,,,2015_Jun_05_1044,59.8888552548,LearningTask,001,43,
200,s,-200,,,,,,,,,,,,,,,,,1,0,1,0,7,3,31,2,,,,,,,,,,,,,,,,,,,,,,,,862.972064018,s,1,None,0,,,,,,,,0.384438037872,,,,,,,,,,,,,,,,,,,,,,,,,,,,1.25,0.514530181885,0.000927209854126,0.384438037872,1,s,865.973955154,,,,,,,,,,,,,,,,,,,,,,,,,,,,,,2015_Jun_05_1044,59.8888552548,LearningTask,001,43,
200,s,-200,,,,,,,,,,,,,,,,,1,0,1,0,8,0,32,2,,,,,,,,,,,,,,,,,,,,,,,,865.975524187,s,1,None,0,,,,,,,,0.383969068527,,,,,,,,,,,,,,,,,,,,,,,,,,,,0.77,0.514366149902,0.000971078872681,0.383969068527,1,s,868.977632046,,,,,,,,,,,,,,,,,,,,,,,,,,,,,,2015_Jun_05_1044,59.8888552548,LearningTask,001,43,
-200,q,200,,,,,,,,,,,,,,,,,1,0,1,0,8,1,33,1,,,,,,,,,,,,,,,,,,,,,,,,868.979254961,q,1,None,0,,,,,,,,0.333938121796,,,,,,,,,,,,,,,,,,,,,,,,,,,,1.75,0.514157056808,0.000944137573242,0.333938121796,1,q,871.980600119,,,,,,,,,,,,,,,,,,,,,,,,,,,,,,2015_Jun_05_1044,59.8888552548,LearningTask,001,43,
200,w,200,,,,,,,,,,,,,,,,,1,0,1,0,8,2,34,0,,,,,,,,,,,,,,,,,,,,,,,,871.982107162,w,1,None,0,,,,,,,,0.334239959717,,,,,,,,,,,,,,,,,,,,,,,,,,,,0.7,0.514498949051,0.000916004180908,0.334239959717,1,w,874.984120131,,,,,,,,,,,,,,,,,,,,,,,,,,,,,,2015_Jun_05_1044,59.8888552548,LearningTask,001,43,
-200,q,200,,,,,,,,,,,,,,,,,1,0,1,0,8,3,35,1,,,,,,,,,,,,,,,,,,,,,,,,874.985746145,q,1,None,0,,,,,,,,0.350767850876,,,,,,,,,,,,,,,,,,,,,,,,,,,,0.49,0.514081954956,0.00098991394043,0.350767850876,1,q,877.987341166,,,,,,,,,,,,,,,,,,,,,,,,,,,,,,2015_Jun_05_1044,59.8888552548,LearningTask,001,43,
200,s,-200,,,,,,,,,,,,,,,,,1,0,1,0,9,0,36,2,,,,,,,,,,,,,,,,,,,,,,,,877.988989115,s,1,None,0,,,,,,,,0.350662946701,,,,,,,,,,,,,,,,,,,,,,,,,,,,1.97,0.514349937439,0.000939846038818,0.350662946701,1,s,880.990674019,,,,,,,,,,,,,,,,,,,,,,,,,,,,,,2015_Jun_05_1044,59.8888552548,LearningTask,001,43,
200,w,200,,,,,,,,,,,,,,,,,1,0,1,0,9,1,37,0,,,,,,,,,,,,,,,,,,,,,,,,880.992336035,w,1,None,0,,,,,,,,0.36761713028,,,,,,,,,,,,,,,,,,,,,,,,,,,,3.89,0.514317989349,0.000931978225708,0.36761713028,1,w,883.993889093,,,,,,,,,,,,,,,,,,,,,,,,,,,,,,2015_Jun_05_1044,59.8888552548,LearningTask,001,43,
200,s,-200,,,,,,,,,,,,,,,,,1,0,1,0,9,2,38,2,,,,,,,,,,,,,,,,,,,,,,,,883.99545002,s,1,None,0,,,,,,,,0.417243003845,,,,,,,,,,,,,,,,,,,,,,,,,,,,1.09,0.514870166779,0.000928163528442,0.417243003845,1,s,886.997343063,,,,,,,,,,,,,,,,,,,,,,,,,,,,,,2015_Jun_05_1044,59.8888552548,LearningTask,001,43,
200,s,-200,,,,,,,,,,,,,,,,,1,0,1,0,9,3,39,2,,,,,,,,,,,,,,,,,,,,,,,,886.998825073,s,1,None,0,,,,,,,,0.350903987885,,,,,,,,,,,,,,,,,,,,,,,,,,,,2.01,0.514499902725,0.00100994110107,0.350903987885,1,s,890.000912189,,,,,,,,,,,,,,,,,,,,,,,,,,,,,,2015_Jun_05_1044,59.8888552548,LearningTask,001,43,
200,w,200,,,,,,,,,,,,,,,,,1,0,1,0,10,0,40,0,,,,,,,,,,,,,,,,,,,,,,,,890.002439022,w,1,None,0,,,,,,,,0.317419052124,,,,,,,,,,,,,,,,,,,,,,,,,,,,1.82,0.514246940613,0.000998973846436,0.317419052124,1,w,893.003883123,,,,,,,,,,,,,,,,,,,,,,,,,,,,,,2015_Jun_05_1044,59.8888552548,LearningTask,001,43,
200,w,200,,,,,,,,,,,,,,,,,1,0,1,0,10,1,41,0,,,,,,,,,,,,,,,,,,,,,,,,893.005465984,w,1,None,0,,,,,,,,0.317764043808,,,,,,,,,,,,,,,,,,,,,,,,,,,,0.51,0.514575958252,0.000856876373291,0.317764043808,1,w,896.007515192,,,,,,,,,,,,,,,,,,,,,,,,,,,,,,2015_Jun_05_1044,59.8888552548,LearningTask,001,43,
-200,a,-200,,,,,,,,,,,,,,,,,1,0,1,0,10,2,42,3,,,,,,,,,,,,,,,,,,,,,,,,896.009052038,a,1,None,0,,,,,,,,0.36779999733,,,,,,,,,,,,,,,,,,,,,,,,,,,,3.95,0.514099836349,0.000915050506592,0.36779999733,1,a,899.010853052,,,,,,,,,,,,,,,,,,,,,,,,,,,,,,2015_Jun_05_1044,59.8888552548,LearningTask,001,43,
-200,q,200,,,,,,,,,,,,,,,,,1,0,1,0,10,3,43,1,,,,,,,,,,,,,,,,,,,,,,,,899.012387991,q,1,None,0,,,,,,,,0.317508935928,,,,,,,,,,,,,,,,,,,,,,,,,,,,3.81,0.514278888702,0.000927925109863,0.317508935928,1,q,902.014345169,,,,,,,,,,,,,,,,,,,,,,,,,,,,,,2015_Jun_05_1044,59.8888552548,LearningTask,001,43,
-200,q,200,,,,,,,,,,,,,,,,,1,0,1,0,11,0,44,1,,,,,,,,,,,,,,,,,,,,,,,,902.015913963,q,1,None,0,,,,,,,,0.333603143692,,,,,,,,,,,,,,,,,,,,,,,,,,,,2.16,0.514189958572,0.000974893569946,0.333603143692,1,q,905.017230988,,,,,,,,,,,,,,,,,,,,,,,,,,,,,,2015_Jun_05_1044,59.8888552548,LearningTask,001,43,
200,w,200,,,,,,,,,,,,,,,,,1,0,1,0,11,1,45,0,,,,,,,,,,,,,,,,,,,,,,,,905.018807173,w,1,None,0,,,,,,,,0.333714962006,,,,,,,,,,,,,,,,,,,,,,,,,,,,0.68,0.514658212662,0.000868082046509,0.333714962006,1,w,908.020785093,,,,,,,,,,,,,,,,,,,,,,,,,,,,,,2015_Jun_05_1044,59.8888552548,LearningTask,001,43,
-200,q,200,,,,,,,,,,,,,,,,,1,0,1,0,11,2,46,1,,,,,,,,,,,,,,,,,,,,,,,,908.022400141,q,1,None,0,,,,,,,,0.334567785263,,,,,,,,,,,,,,,,,,,,,,,,,,,,0.44,0.514266014099,0.00091814994812,0.334567785263,1,q,911.02426815,,,,,,,,,,,,,,,,,,,,,,,,,,,,,,2015_Jun_05_1044,59.8888552548,LearningTask,001,43,
200,w,200,,,,,,,,,,,,,,,,,1,0,1,0,11,3,47,0,,,,,,,,,,,,,,,,,,,,,,,,911.025746107,w,1,None,0,,,,,,,,0.300487995148,,,,,,,,,,,,,,,,,,,,,,,,,,,,1.83,0.514620065689,0.000981092453003,0.300487995148,1,w,914.02768302,,,,,,,,,,,,,,,,,,,,,,,,,,,,,,2015_Jun_05_1044,59.8888552548,LearningTask,001,43,
-200,a,-200,,,,,,,,,,,,,,,,,1,0,1,0,12,0,48,3,,,,,,,,,,,,,,,,,,,,,,,,917.031237125,a,1,None,0,,,,,,,,0.367505073547,,,,,,,,,,,,,,,,,,,,,,,,,,,,0.43,0.514334917068,0.000951051712036,0.367400884628,0,s,917.03087616,0.35,0.515556097031,0.000959157943726,0.367505073547,1,a,920.034343004,,,,,,,,,,,,,,,,,,,,,,,2015_Jun_05_1044,59.8888552548,LearningTask,001,43,
-200,a,-200,,,,,,,,,,,,,,,,,1,0,1,0,12,1,49,3,,,,,,,,,,,,,,,,,,,,,,,,920.035927057,a,1,None,0,,,,,,,,0.333866834641,,,,,,,,,,,,,,,,,,,,,,,,,,,,0.66,0.514461994171,0.000905990600586,0.333866834641,1,a,923.037595034,,,,,,,,,,,,,,,,,,,,,,,,,,,,,,2015_Jun_05_1044,59.8888552548,LearningTask,001,43,
-200,a,-200,,,,,,,,,,,,,,,,,1,0,1,0,12,2,50,3,,,,,,,,,,,,,,,,,,,,,,,,923.039098024,a,1,None,0,,,,,,,,0.401127099991,,,,,,,,,,,,,,,,,,,,,,,,,,,,0.79,0.514524936676,0.000967025756836,0.401127099991,1,a,926.041175127,,,,,,,,,,,,,,,,,,,,,,,,,,,,,,2015_Jun_05_1044,59.8888552548,LearningTask,001,43,
-200,q,200,,,,,,,,,,,,,,,,,1,0,1,0,12,3,51,1,,,,,,,,,,,,,,,,,,,,,,,,926.042749166,q,1,None,0,,,,,,,,0.317471981049,,,,,,,,,,,,,,,,,,,,,,,,,,,,0.61,0.514117002487,0.000988960266113,0.317471981049,1,q,929.044368982,,,,,,,,,,,,,,,,,,,,,,,,,,,,,,2015_Jun_05_1044,59.8888552548,LearningTask,001,43,
200,w,200,,,,,,,,,,,,,,,,,1,0,1,0,13,0,52,0,,,,,,,,,,,,,,,,,,,,,,,,929.045963049,w,1,None,0,,,,,,,,0.383983135223,,,,,,,,,,,,,,,,,,,,,,,,,,,,0.41,0.51442694664,0.000874042510986,0.383983135223,1,w,932.047722101,,,,,,,,,,,,,,,,,,,,,,,,,,,,,,2015_Jun_05_1044,59.8888552548,LearningTask,001,43,
200,s,-200,,,,,,,,,,,,,,,,,1,0,1,0,13,1,53,2,,,,,,,,,,,,,,,,,,,,,,,,932.049301147,s,1,None,0,,,,,,,,0.467828035355,,,,,,,,,,,,,,,,,,,,,,,,,,,,0.41,0.514508008957,0.000931024551392,0.467828035355,1,s,935.051095009,,,,,,,,,,,,,,,,,,,,,,,,,,,,,,2015_Jun_05_1044,59.8888552548,LearningTask,001,43,
200,s,-200,,,,,,,,,,,,,,,,,1,0,1,0,13,2,54,2,,,,,,,,,,,,,,,,,,,,,,,,935.052618027,s,1,None,0,,,,,,,,0.434572935104,,,,,,,,,,,,,,,,,,,,,,,,,,,,0.66,0.514345884323,0.00092887878418,0.434572935104,1,s,938.054435015,,,,,,,,,,,,,,,,,,,,,,,,,,,,,,2015_Jun_05_1044,59.8888552548,LearningTask,001,43,
200,w,200,,,,,,,,,,,,,,,,,1,0,1,0,13,3,55,0,,,,,,,,,,,,,,,,,,,,,,,,938.056087971,w,1,None,0,,,,,,,,0.400934934616,,,,,,,,,,,,,,,,,,,,,,,,,,,,1.23,0.514443159103,0.000940084457397,0.400934934616,1,w,941.057813168,,,,,,,,,,,,,,,,,,,,,,,,,,,,,,2015_Jun_05_1044,59.8888552548,LearningTask,001,43,
200,w,200,,,,,,,,,,,,,,,,,1,0,1,0,14,0,56,0,,,,,,,,,,,,,,,,,,,,,,,,944.061470985,w,1,None,0,,,,,,,,0.351051092148,,,,,,,,,,,,,,,,,,,,,,,,,,,,1.2,0.514435052872,0.000872135162354,0.484460115433,0,s,944.061182022,1.21,0.515482902527,0.0010039806366,0.351051092148,1,w,947.06451416,,,,,,,,,,,,,,,,,,,,,,,2015_Jun_05_1044,59.8888552548,LearningTask,001,43,
-200,q,200,,,,,,,,,,,,,,,,,1,0,1,0,14,1,57,1,,,,,,,,,,,,,,,,,,,,,,,,947.066035032,q,1,None,0,,,,,,,,0.367491006851,,,,,,,,,,,,,,,,,,,,,,,,,,,,0.85,0.514320135117,0.00102615356445,0.367491006851,1,q,950.068072081,,,,,,,,,,,,,,,,,,,,,,,,,,,,,,2015_Jun_05_1044,59.8888552548,LearningTask,001,43,
-200,a,-200,,,,,,,,,,,,,,,,,1,0,1,0,14,2,58,3,,,,,,,,,,,,,,,,,,,,,,,,950.069698095,a,1,None,0,,,,,,,,0.600754976273,,,,,,,,,,,,,,,,,,,,,,,,,,,,3.8,0.513978004456,0.00100088119507,0.600754976273,1,a,953.070983171,,,,,,,,,,,,,,,,,,,,,,,,,,,,,,2015_Jun_05_1044,59.8888552548,LearningTask,001,43,
200,w,200,,,,,,,,,,,,,,,,,1,0,1,0,14,3,59,0,,,,,,,,,,,,,,,,,,,,,,,,953.072587013,w,1,None,0,,,,,,,,0.467488050461,,,,,,,,,,,,,,,,,,,,,,,,,,,,4.09,0.514594078064,0.000874996185303,0.467488050461,1,w,956.074525118,,,,,,,,,,,,,,,,,,,,,,,,,,,,,,2015_Jun_05_1044,59.8888552548,LearningTask,001,43,
-200,q,200,,,,,,,,,,,,,,,,,1,0,1,0,15,0,60,1,,,,,,,,,,,,,,,,,,,,,,,,956.076143026,q,1,None,0,,,,,,,,0.317971944809,,,,,,,,,,,,,,,,,,,,,,,,,,,,0.35,0.514101028442,0.000924110412598,0.317971944809,1,q,959.077996969,,,,,,,,,,,,,,,,,,,,,,,,,,,,,,2015_Jun_05_1044,59.8888552548,LearningTask,001,43,
200,s,-200,,,,,,,,,,,,,,,,,1,0,1,0,15,1,61,2,,,,,,,,,,,,,,,,,,,,,,,,959.07952714,s,1,None,0,,,,,,,,0.451359987259,,,,,,,,,,,,,,,,,,,,,,,,,,,,2.05,0.514187812805,0.000922918319702,0.451359987259,1,s,962.081364155,,,,,,,,,,,,,,,,,,,,,,,,,,,,,,2015_Jun_05_1044,59.8888552548,LearningTask,001,43,
200,s,-200,,,,,,,,,,,,,,,,,1,0,1,0,15,2,62,2,,,,,,,,,,,,,,,,,,,,,,,,962.083153963,s,1,None,0,,,,,,,,0.434710979462,,,,,,,,,,,,,,,,,,,,,,,,,,,,2.03,0.514017105103,0.000971078872681,0.434710979462,1,s,965.084794998,,,,,,,,,,,,,,,,,,,,,,,,,,,,,,2015_Jun_05_1044,59.8888552548,LearningTask,001,43,
-200,q,200,,,,,,,,,,,,,,,,,1,0,1,0,15,3,63,1,,,,,,,,,,,,,,,,,,,,,,,,965.086448193,q,1,None,0,,,,,,,,0.500493049622,,,,,,,,,,,,,,,,,,,,,,,,,,,,1.04,0.51447892189,0.00092887878418,0.500493049622,1,q,968.087939024,,,,,,,,,,,,,,,,,,,,,,,,,,,,,,2015_Jun_05_1044,59.8888552548,LearningTask,001,43,
200,w,200,,,,,,,,,,,,,,,,,1,0,1,0,16,0,64,0,,,,,,,,,,,,,,,,,,,,,,,,968.089467049,w,1,None,0,,,,,,,,0.367352962494,,,,,,,,,,,,,,,,,,,,,,,,,,,,1.88,0.514820098877,0.00104904174805,0.367352962494,1,w,971.091629028,,,,,,,,,,,,,,,,,,,,,,,,,,,,,,2015_Jun_05_1044,59.8888552548,LearningTask,001,43,
200,w,200,,,,,,,,,,,,,,,,,1,0,1,0,16,1,65,0,,,,,,,,,,,,,,,,,,,,,,,,971.093281984,w,1,None,0,,,,,,,,0.367663860321,,,,,,,,,,,,,,,,,,,,,,,,,,,,0.58,0.513846874237,0.0010290145874,0.367663860321,1,w,974.094607115,,,,,,,,,,,,,,,,,,,,,,,,,,,,,,2015_Jun_05_1044,59.8888552548,LearningTask,001,43,
200,s,-200,,,,,,,,,,,,,,,,,1,0,1,0,16,2,66,2,,,,,,,,,,,,,,,,,,,,,,,,974.096182108,s,1,None,0,,,,,,,,0.45045208931,,,,,,,,,,,,,,,,,,,,,,,,,,,,1.91,0.514750957489,0.000891923904419,0.45045208931,1,s,977.098150015,,,,,,,,,,,,,,,,,,,,,,,,,,,,,,2015_Jun_05_1044,59.8888552548,LearningTask,001,43,
200,s,-200,,,,,,,,,,,,,,,,,1,0,1,0,16,3,67,2,,,,,,,,,,,,,,,,,,,,,,,,977.099934101,s,1,None,0,,,,,,,,0.400877952576,,,,,,,,,,,,,,,,,,,,,,,,,,,,3.77,0.51394701004,0.000972986221313,0.400877952576,1,s,980.101603985,,,,,,,,,,,,,,,,,,,,,,,,,,,,,,2015_Jun_05_1044,59.8888552548,LearningTask,001,43,
-200,q,200,,,,,,,,,,,,,,,,,1,0,1,0,17,0,68,1,,,,,,,,,,,,,,,,,,,,,,,,980.103222132,q,1,None,0,,,,,,,,0.350542068481,,,,,,,,,,,,,,,,,,,,,,,,,,,,4.18,0.514316797256,0.00092601776123,0.350542068481,1,q,983.104725122,,,,,,,,,,,,,,,,,,,,,,,,,,,,,,2015_Jun_05_1044,59.8888552548,LearningTask,001,43,
-200,q,200,,,,,,,,,,,,,,,,,1,0,1,0,17,1,69,1,,,,,,,,,,,,,,,,,,,,,,,,983.106291056,q,1,None,0,,,,,,,,0.33404302597,,,,,,,,,,,,,,,,,,,,,,,,,,,,0.37,0.514453172684,0.000912189483643,0.33404302597,1,q,986.108106136,,,,,,,,,,,,,,,,,,,,,,,,,,,,,,2015_Jun_05_1044,59.8888552548,LearningTask,001,43,
-200,q,200,,,,,,,,,,,,,,,,,1,0,1,0,17,2,70,1,,,,,,,,,,,,,,,,,,,,,,,,986.109631062,q,1,None,0,,,,,,,,0.317551136017,,,,,,,,,,,,,,,,,,,,,,,,,,,,0.9,0.514298915863,0.000910043716431,0.317551136017,1,q,989.111584187,,,,,,,,,,,,,,,,,,,,,,,,,,,,,,2015_Jun_05_1044,59.8888552548,LearningTask,001,43,
200,s,-200,,,,,,,,,,,,,,,,,1,0,1,0,17,3,71,2,,,,,,,,,,,,,,,,,,,,,,,,989.113214016,s,1,None,0,,,,,,,,0.417438030243,,,,,,,,,,,,,,,,,,,,,,,,,,,,0.44,0.514274120331,0.000929117202759,0.417438030243,1,s,992.114660978,,,,,,,,,,,,,,,,,,,,,,,,,,,,,,2015_Jun_05_1044,59.8888552548,LearningTask,001,43,
200,s,-200,,,,,,,,,,,,,,,,,1,0,1,0,18,0,72,2,,,,,,,,,,,,,,,,,,,,,,,,992.116358995,s,1,None,0,,,,,,,,0.38435792923,,,,,,,,,,,,,,,,,,,,,,,,,,,,0.64,0.514394044876,0.000937938690186,0.38435792923,1,s,995.118185997,,,,,,,,,,,,,,,,,,,,,,,,,,,,,,2015_Jun_05_1044,59.8888552548,LearningTask,001,43,
200,w,200,,,,,,,,,,,,,,,,,1,0,1,0,18,1,73,0,,,,,,,,,,,,,,,,,,,,,,,,995.119747162,w,1,None,0,,,,,,,,0.384360074997,,,,,,,,,,,,,,,,,,,,,,,,,,,,1.95,0.514276981354,0.000917911529541,0.384360074997,1,w,998.121724129,,,,,,,,,,,,,,,,,,,,,,,,,,,,,,2015_Jun_05_1044,59.8888552548,LearningTask,001,43,
200,w,200,,,,,,,,,,,,,,,,,1,0,1,0,18,2,74,0,,,,,,,,,,,,,,,,,,,,,,,,1001.12531805,w,1,None,0,,,,,,,,0.317286968231,,,,,,,,,,,,,,,,,,,,,,,,,,,,4.1,0.514186143875,0.00100207328796,0.384277105331,0,s,1001.12499213,3.92,0.515496015549,0.000978946685791,0.317286968231,1,w,1004.12811017,,,,,,,,,,,,,,,,,,,,,,,2015_Jun_05_1044,59.8888552548,LearningTask,001,43,
-200,q,200,,,,,,,,,,,,,,,,,1,0,1,0,18,3,75,1,,,,,,,,,,,,,,,,,,,,,,,,1004.12966919,q,1,None,0,,,,,,,,0.350503921509,,,,,,,,,,,,,,,,,,,,,,,,,,,,2.21,0.514935016632,0.000887870788574,0.350503921509,1,q,1007.13158512,,,,,,,,,,,,,,,,,,,,,,,,,,,,,,2015_Jun_05_1044,59.8888552548,LearningTask,001,43,
-200,q,200,,,,,,,,,,,,,,,,,1,0,1,0,19,0,76,1,,,,,,,,,,,,,,,,,,,,,,,,1007.13314819,q,1,None,0,,,,,,,,0.350923061371,,,,,,,,,,,,,,,,,,,,,,,,,,,,1.97,0.514294862747,0.000933885574341,0.350923061371,1,q,1010.13504004,,,,,,,,,,,,,,,,,,,,,,,,,,,,,,2015_Jun_05_1044,59.8888552548,LearningTask,001,43,
200,w,200,,,,,,,,,,,,,,,,,1,0,1,0,19,1,77,0,,,,,,,,,,,,,,,,,,,,,,,,1010.13664508,w,1,None,0,,,,,,,,0.317521095276,,,,,,,,,,,,,,,,,,,,,,,,,,,,1.95,0.514155864716,0.00100684165955,0.317521095276,1,w,1013.13840008,,,,,,,,,,,,,,,,,,,,,,,,,,,,,,2015_Jun_05_1044,59.8888552548,LearningTask,001,43,
200,s,-200,,,,,,,,,,,,,,,,,1,0,1,0,19,2,78,2,,,,,,,,,,,,,,,,,,,,,,,,1013.14002299,s,1,None,0,,,,,,,,0.434364080429,,,,,,,,,,,,,,,,,,,,,,,,,,,,0.73,0.514022111893,0.00088906288147,0.434364080429,1,s,1016.14142108,,,,,,,,,,,,,,,,,,,,,,,,,,,,,,2015_Jun_05_1044,59.8888552548,LearningTask,001,43,
-200,a,-200,,,,,,,,,,,,,,,,,1,0,1,0,19,3,79,3,,,,,,,,,,,,,,,,,,,,,,,,1016.14297509,a,1,None,0,,,,,,,,0.36740398407,,,,,,,,,,,,,,,,,,,,,,,,,,,,2.04,0.514835119247,0.000900983810425,0.36740398407,1,a,1019.14499116,,,,,,,,,,,,,,,,,,,,,,,,,,,,,,2015_Jun_05_1044,59.8888552548,LearningTask,001,43,
200,s,-200,,,,,,,,,,,,,,,,,1,0,1,0,20,0,80,2,,,,,,,,,,,,,,,,,,,,,,,,1019.14656496,s,1,None,0,,,,,,,,0.368002891541,,,,,,,,,,,,,,,,,,,,,,,,,,,,2.22,0.514348983765,0.000930070877075,0.368002891541,1,s,1022.1484201,,,,,,,,,,,,,,,,,,,,,,,,,,,,,,2015_Jun_05_1044,59.8888552548,LearningTask,001,43,
-200,a,-200,,,,,,,,,,,,,,,,,1,0,1,0,20,1,81,3,,,,,,,,,,,,,,,,,,,,,,,,1022.14987612,a,1,None,0,,,,,,,,0.450841903687,,,,,,,,,,,,,,,,,,,,,,,,,,,,0.9,0.514386177063,0.00101399421692,0.450841903687,1,a,1025.15195918,,,,,,,,,,,,,,,,,,,,,,,,,,,,,,2015_Jun_05_1044,59.8888552548,LearningTask,001,43,
-200,a,-200,,,,,,,,,,,,,,,,,1,0,1,0,20,2,82,3,,,,,,,,,,,,,,,,,,,,,,,,1025.15350413,a,1,None,0,,,,,,,,0.384080886841,,,,,,,,,,,,,,,,,,,,,,,,,,,,2.01,0.514143943787,0.000870943069458,0.384080886841,1,a,1028.15490317,,,,,,,,,,,,,,,,,,,,,,,,,,,,,,2015_Jun_05_1044,59.8888552548,LearningTask,001,43,
200,s,-200,,,,,,,,,,,,,,,,,1,0,1,0,20,3,83,2,,,,,,,,,,,,,,,,,,,,,,,,1028.15656114,s,1,None,0,,,,,,,,0.383793830872,,,,,,,,,,,,,,,,,,,,,,,,,,,,0.66,0.514765977859,0.000861883163452,0.383793830872,1,s,1031.15834618,,,,,,,,,,,,,,,,,,,,,,,,,,,,,,2015_Jun_05_1044,59.8888552548,LearningTask,001,43,
-200,a,-200,,,,,,,,,,,,,,,,,1,0,1,0,21,0,84,3,,,,,,,,,,,,,,,,,,,,,,,,1031.16000915,a,1,None,0,,,,,,,,0.433978796005,,,,,,,,,,,,,,,,,,,,,,,,,,,,3.99,0.514517784119,0.000929832458496,0.433978796005,1,a,1034.16175103,,,,,,,,,,,,,,,,,,,,,,,,,,,,,,2015_Jun_05_1044,59.8888552548,LearningTask,001,43,
-200,a,-200,,,,,,,,,,,,,,,,,1,0,1,0,21,1,85,3,,,,,,,,,,,,,,,,,,,,,,,,1034.16323304,a,1,None,0,,,,,,,,0.367698907852,,,,,,,,,,,,,,,,,,,,,,,,,,,,0.66,0.514525175095,0.00107216835022,0.367698907852,1,a,1037.16560102,,,,,,,,,,,,,,,,,,,,,,,,,,,,,,2015_Jun_05_1044,59.8888552548,LearningTask,001,43,
-200,a,-200,,,,,,,,,,,,,,,,,1,0,1,0,21,2,86,3,,,,,,,,,,,,,,,,,,,,,,,,1037.167099,a,1,None,0,,,,,,,,0.317316055298,,,,,,,,,,,,,,,,,,,,,,,,,,,,0.4,0.51407289505,0.000977039337158,0.317316055298,1,a,1040.16831207,,,,,,,,,,,,,,,,,,,,,,,,,,,,,,2015_Jun_05_1044,59.8888552548,LearningTask,001,43,
-200,q,200,,,,,,,,,,,,,,,,,1,0,1,0,21,3,87,1,,,,,,,,,,,,,,,,,,,,,,,,1040.17002606,q,1,None,0,,,,,,,,0.383908987045,,,,,,,,,,,,,,,,,,,,,,,,,,,,1.25,0.514745950699,0.000874996185303,0.383908987045,1,q,1043.17188001,,,,,,,,,,,,,,,,,,,,,,,,,,,,,,2015_Jun_05_1044,59.8888552548,LearningTask,001,43,
-200,q,200,,,,,,,,,,,,,,,,,1,0,1,0,22,0,88,1,,,,,,,,,,,,,,,,,,,,,,,,1043.17346311,q,1,None,0,,,,,,,,0.400949001312,,,,,,,,,,,,,,,,,,,,,,,,,,,,1.0,0.514142036438,0.000926971435547,0.400949001312,1,q,1046.17525315,,,,,,,,,,,,,,,,,,,,,,,,,,,,,,2015_Jun_05_1044,59.8888552548,LearningTask,001,43,
200,w,200,,,,,,,,,,,,,,,,,1,0,1,0,22,1,89,0,,,,,,,,,,,,,,,,,,,,,,,,1046.17673802,w,1,None,0,,,,,,,,0.384137868881,,,,,,,,,,,,,,,,,,,,,,,,,,,,4.06,0.514408111572,0.000923156738281,0.384137868881,1,w,1049.17900801,,,,,,,,,,,,,,,,,,,,,,,,,,,,,,2015_Jun_05_1044,59.8888552548,LearningTask,001,43,
200,w,200,,,,,,,,,,,,,,,,,1,0,1,0,22,2,90,0,,,,,,,,,,,,,,,,,,,,,,,,1049.18053603,w,1,None,0,,,,,,,,0.367517948151,,,,,,,,,,,,,,,,,,,,,,,,,,,,0.89,0.513962984085,0.00102090835571,0.367517948151,1,w,1052.18191814,,,,,,,,,,,,,,,,,,,,,,,,,,,,,,2015_Jun_05_1044,59.8888552548,LearningTask,001,43,
-200,a,-200,,,,,,,,,,,,,,,,,1,0,1,0,22,3,91,3,,,,,,,,,,,,,,,,,,,,,,,,1052.18373919,a,1,None,0,,,,,,,,0.467349052429,,,,,,,,,,,,,,,,,,,,,,,,,,,,0.76,0.514465093613,0.000874996185303,0.467349052429,1,a,1055.18522811,,,,,,,,,,,,,,,,,,,,,,,,,,,,,,2015_Jun_05_1044,59.8888552548,LearningTask,001,43,
200,w,200,,,,,,,,,,,,,,,,,1,0,1,0,23,0,92,0,,,,,,,,,,,,,,,,,,,,,,,,1055.18686509,w,1,None,0,,,,,,,,0.350674152374,,,,,,,,,,,,,,,,,,,,,,,,,,,,4.19,0.514569997787,0.000916004180908,0.350674152374,1,w,1058.18892407,,,,,,,,,,,,,,,,,,,,,,,,,,,,,,2015_Jun_05_1044,59.8888552548,LearningTask,001,43,
200,s,-200,,,,,,,,,,,,,,,,,1,0,1,0,23,1,93,2,,,,,,,,,,,,,,,,,,,,,,,,1058.19050813,s,1,None,0,,,,,,,,0.418231010437,,,,,,,,,,,,,,,,,,,,,,,,,,,,3.83,0.513911008835,0.000937938690186,0.418231010437,1,s,1061.19205308,,,,,,,,,,,,,,,,,,,,,,,,,,,,,,2015_Jun_05_1044,59.8888552548,LearningTask,001,43,
200,w,200,,,,,,,,,,,,,,,,,1,0,1,0,23,2,94,0,,,,,,,,,,,,,,,,,,,,,,,,1061.19364119,w,1,None,0,,,,,,,,0.383967876434,,,,,,,,,,,,,,,,,,,,,,,,,,,,0.32,0.514577150345,0.000874042510986,0.383967876434,1,w,1064.19532514,,,,,,,,,,,,,,,,,,,,,,,,,,,,,,2015_Jun_05_1044,59.8888552548,LearningTask,001,43,
200,s,-200,,,,,,,,,,,,,,,,,1,0,1,0,23,3,95,2,,,,,,,,,,,,,,,,,,,,,,,,1064.19716001,s,1,None,0,,,,,,,,0.384053945541,,,,,,,,,,,,,,,,,,,,,,,,,,,,0.6,0.514465808868,0.000881910324097,0.384053945541,1,s,1067.19848704,,,,,,,,,,,,,,,,,,,,,,,,,,,,,,2015_Jun_05_1044,59.8888552548,LearningTask,001,43,
-200,a,-200,,,,,,,,,,,,,,,,,1,0,1,0,24,0,96,3,,,,,,,,,,,,,,,,,,,,,,,,1067.20013309,a,1,None,0,,,,,,,,0.417508125305,,,,,,,,,,,,,,,,,,,,,,,,,,,,0.48,0.514405012131,0.000921964645386,0.417508125305,1,a,1070.20202017,,,,,,,,,,,,,,,,,,,,,,,,,,,,,,2015_Jun_05_1044,59.8888552548,LearningTask,001,43,
200,w,200,,,,,,,,,,,,,,,,,1,0,1,0,24,1,97,0,,,,,,,,,,,,,,,,,,,,,,,,1070.203686,w,1,None,0,,,,,,,,0.351430892944,,,,,,,,,,,,,,,,,,,,,,,,,,,,0.43,0.514136075974,0.000974893569946,0.351430892944,1,w,1073.20567203,,,,,,,,,,,,,,,,,,,,,,,,,,,,,,2015_Jun_05_1044,59.8888552548,LearningTask,001,43,
-200,a,-200,,,,,,,,,,,,,,,,,1,0,1,0,24,2,98,3,,,,,,,,,,,,,,,,,,,,,,,,1073.20719314,a,1,None,0,,,,,,,,0.400701999664,,,,,,,,,,,,,,,,,,,,,,,,,,,,3.81,0.514133930206,0.00108885765076,0.400701999664,1,a,1076.20871711,,,,,,,,,,,,,,,,,,,,,,,,,,,,,,2015_Jun_05_1044,59.8888552548,LearningTask,001,43,
-200,a,-200,,,,,,,,,,,,,,,,,1,0,1,0,24,3,99,3,,,,,,,,,,,,,,,,,,,,,,,,1076.21053219,a,1,None,0,,,,,,,,0.383645057678,,,,,,,,,,,,,,,,,,,,,,,,,,,,0.9,0.514585971832,0.00092887878418,0.383645057678,1,a,1079.21201301,,,,,,,,,,,,,,,,,,,,,,,,,,,,,,2015_Jun_05_1044,59.8888552548,LearningTask,001,43,
,,,,,,,,,,,,,,,,,,,1,0,1,0,,,,,,,,,,,,,,,,,,,,,,,,,,,,,,,,,,,,,,,,,,,,,,,,,,,,,,,,,,,,,,,,,,,,,,,,,,,,,,,,,,,,,,,,,9,29.4135251045,,,,,,,,,,,,,,2015_Jun_05_1044,59.8888552548,LearningTask,001,43,
-200,a,-200,,,,,,,,,,,,,,,,,2,0,2,0,0,0,0,3,,,,,,,,,,,,,,,,,,,,,,,,1109.43704796,a,1,None,0,,,,,,,,0.401047945023,,,,,,,,,,,,,,,,,,,,,,,,,,,,0.41,0.507896184921,0.000939130783081,0.401047945023,1,a,1112.43324018,,,,,,,,,,,,,,,,,,,,,,,,,,,,,,2015_Jun_05_1044,59.8888552548,LearningTask,001,43,
200,w,200,,,,,,,,,,,,,,,,,2,0,2,0,0,1,1,0,,,,,,,,,,,,,,,,,,,,,,,,1115.43613815,w,1,None,0,,,,,,,,0.367334127426,,,,,,,,,,,,,,,,,,,,,,,,,,,,1.02,0.513799190521,0.00102114677429,0.401111125946,0,s,1115.435853,0.85,0.515962839127,0.00113201141357,0.367334127426,1,w,1118.43958998,,,,,,,,,,,,,,,,,,,,,,,2015_Jun_05_1044,59.8888552548,LearningTask,001,43,
200,w,200,,,,,,,,,,,,,,,,,2,0,2,0,0,2,2,0,,,,,,,,,,,,,,,,,,,,,,,,1118.44118214,w,1,w,1,,,,,,,,0.367748975754,,,,,,,,,,,,,,,,,,,,,,,,,,,,0.48,0.51394200325,0.00124478340149,0.367748975754,1,w,1121.44271708,,,,,,,,,,,,,,,,,0.0571949481964,,,,,,,,,,,,,2015_Jun_05_1044,59.8888552548,LearningTask,001,43,
200,w,200,,,,,,,,,,,,,,,,,2,0,2,0,0,3,3,0,,,,,,,,,,,,,,,,,,,,,,,,1121.44420719,w,1,None,0,,,,,,,,0.350634098053,,,,,,,,,,,,,,,,,,,,,,,,,,,,1.94,0.514276027679,0.001060962677,0.350634098053,1,w,1124.44609809,,,,,,,,,,,,,,,,,,,,,,,,,,,,,,2015_Jun_05_1044,59.8888552548,LearningTask,001,43,
200,s,-200,,,,,,,,,,,,,,,,,2,0,2,0,1,0,4,2,,,,,,,,,,,,,,,,,,,,,,,,1124.44781518,s,1,None,0,,,,,,,,0.467761993408,,,,,,,,,,,,,,,,,,,,,,,,,,,,0.54,0.514132022858,0.00091290473938,0.467761993408,1,s,1127.44911504,,,,,,,,,,,,,,,,,,,,,,,,,,,,,,2015_Jun_05_1044,59.8888552548,LearningTask,001,43,
200,s,-200,,,,,,,,,,,,,,,,,2,0,2,0,1,1,5,2,,,,,,,,,,,,,,,,,,,,,,,,1127.45078015,s,1,None,0,,,,,,,,0.383942127228,,,,,,,,,,,,,,,,,,,,,,,,,,,,0.85,0.514792919159,0.0284540653229,0.383942127228,1,s,1130.45272613,,,,,,,,,,,,,,,,,,,,,,,,,,,,,,2015_Jun_05_1044,59.8888552548,LearningTask,001,43,
-200,a,-200,,,,,,,,,,,,,,,,,2,0,2,0,1,2,6,3,,,,,,,,,,,,,,,,,,,,,,,,1130.45439315,a,1,None,0,,,,,,,,0.451236009598,,,,,,,,,,,,,,,,,,,,,,,,,,,,0.27,0.513967037201,0.000930070877075,0.451236009598,1,a,1133.45602798,,,,,,,,,,,,,,,,,,,,,,,,,,,,,,2015_Jun_05_1044,59.8888552548,LearningTask,001,43,
200,s,-200,,,,,,,,,,,,,,,,,2,0,2,0,1,3,7,2,,,,,,,,,,,,,,,,,,,,,,,,1133.45755696,s,1,None,0,,,,,,,,0.43462395668,,,,,,,,,,,,,,,,,,,,,,,,,,,,2.15,0.514446020126,0.00100588798523,0.43462395668,1,s,1136.45968103,,,,,,,,,,,,,,,,,,,,,,,,,,,,,,2015_Jun_05_1044,59.8888552548,LearningTask,001,43,
-200,a,-200,,,,,,,,,,,,,,,,,2,0,2,0,2,0,8,3,,,,,,,,,,,,,,,,,,,,,,,,1136.46123815,a,1,None,0,,,,,,,,0.383822917938,,,,,,,,,,,,,,,,,,,,,,,,,,,,2.0,0.514063119888,0.000956058502197,0.383822917938,1,a,1139.46262407,,,,,,,,,,,,,,,,,,,,,,,,,,,,,,2015_Jun_05_1044,59.8888552548,LearningTask,001,43,
-200,a,-200,,,,,,,,,,,,,,,,,2,0,2,0,2,1,9,3,,,,,,,,,,,,,,,,,,,,,,,,1139.46417308,a,1,None,0,,,,,,,,0.351199865341,,,,,,,,,,,,,,,,,,,,,,,,,,,,1.98,0.51457285881,0.000886917114258,0.351199865341,1,a,1142.46598816,,,,,,,,,,,,,,,,,,,,,,,,,,,,,,2015_Jun_05_1044,59.8888552548,LearningTask,001,43,
-200,q,200,,,,,,,,,,,,,,,,,2,0,2,0,2,2,10,1,,,,,,,,,,,,,,,,,,,,,,,,1142.46761703,q,1,None,0,,,,,,,,0.384067058563,,,,,,,,,,,,,,,,,,,,,,,,,,,,3.81,0.514605045319,0.000938892364502,0.384067058563,1,q,1145.46950603,,,,,,,,,,,,,,,,,,,,,,,,,,,,,,2015_Jun_05_1044,59.8888552548,LearningTask,001,43,
-200,a,-200,,,,,,,,,,,,,,,,,2,0,2,0,2,3,11,3,,,,,,,,,,,,,,,,,,,,,,,,1145.47098398,a,1,None,0,,,,,,,,0.350957870483,,,,,,,,,,,,,,,,,,,,,,,,,,,,0.34,0.51441693306,0.00103187561035,0.350957870483,1,a,1148.47321606,,,,,,,,,,,,,,,,,,,,,,,,,,,,,,2015_Jun_05_1044,59.8888552548,LearningTask,001,43,
200,s,-200,,,,,,,,,,,,,,,,,2,0,2,0,3,0,12,2,,,,,,,,,,,,,,,,,,,,,,,,1148.47475004,s,1,None,0,,,,,,,,0.401288986206,,,,,,,,,,,,,,,,,,,,,,,,,,,,0.3,0.514016866684,0.000948905944824,0.401288986206,1,s,1151.47600508,,,,,,,,,,,,,,,,,,,,,,,,,,,,,,2015_Jun_05_1044,59.8888552548,LearningTask,001,43,
200,w,200,,,,,,,,,,,,,,,,,2,0,2,0,3,1,13,0,,,,,,,,,,,,,,,,,,,,,,,,1151.47765017,w,1,None,0,,,,,,,,0.368210792542,,,,,,,,,,,,,,,,,,,,,,,,,,,,4.04,0.514357805252,0.00089693069458,0.368210792542,1,w,1154.47961903,,,,,,,,,,,,,,,,,,,,,,,,,,,,,,2015_Jun_05_1044,59.8888552548,LearningTask,001,43,
200,w,200,,,,,,,,,,,,,,,,,2,0,2,0,3,2,14,0,,,,,,,,,,,,,,,,,,,,,,,,1154.48121119,w,1,None,0,,,,,,,,0.384520053864,,,,,,,,,,,,,,,,,,,,,,,,,,,,1.91,0.514163970947,0.000927925109863,0.384520053864,1,w,1157.48318505,,,,,,,,,,,,,,,,,,,,,,,,,,,,,,2015_Jun_05_1044,59.8888552548,LearningTask,001,43,
200,s,-200,,,,,,,,,,,,,,,,,2,0,2,0,3,3,15,2,,,,,,,,,,,,,,,,,,,,,,,,1157.48481417,s,1,None,0,,,,,,,,0.367284059525,,,,,,,,,,,,,,,,,,,,,,,,,,,,2.12,0.513984918594,0.000936985015869,0.367284059525,1,s,1160.486444,,,,,,,,,,,,,,,,,,,,,,,,,,,,,,2015_Jun_05_1044,59.8888552548,LearningTask,001,43,
-200,q,200,,,,,,,,,,,,,,,,,2,0,2,0,4,0,16,1,,,,,,,,,,,,,,,,,,,,,,,,1160.48807597,q,1,None,0,,,,,,,,0.350969076157,,,,,,,,,,,,,,,,,,,,,,,,,,,,3.94,0.514577865601,0.000876903533936,0.350969076157,1,q,1163.4894681,,,,,,,,,,,,,,,,,,,,,,,,,,,,,,2015_Jun_05_1044,59.8888552548,LearningTask,001,43,
-200,a,-200,,,,,,,,,,,,,,,,,2,0,2,0,4,1,17,3,,,,,,,,,,,,,,,,,,,,,,,,1163.49097419,a,1,None,0,,,,,,,,0.434282064438,,,,,,,,,,,,,,,,,,,,,,,,,,,,3.89,0.514576196671,0.000924110412598,0.434282064438,1,a,1166.49292803,,,,,,,,,,,,,,,,,,,,,,,,,,,,,,2015_Jun_05_1044,59.8888552548,LearningTask,001,43,
-200,q,200,,,,,,,,,,,,,,,,,2,0,2,0,4,2,18,1,,,,,,,,,,,,,,,,,,,,,,,,1166.49450397,q,1,None,0,,,,,,,,0.317304849625,,,,,,,,,,,,,,,,,,,,,,,,,,,,0.52,0.514299154282,0.000916004180908,0.317304849625,1,q,1169.496207,,,,,,,,,,,,,,,,,,,,,,,,,,,,,,2015_Jun_05_1044,59.8888552548,LearningTask,001,43,
200,w,200,,,,,,,,,,,,,,,,,2,0,2,0,4,3,19,0,,,,,,,,,,,,,,,,,,,,,,,,1169.49770212,w,1,None,0,,,,,,,,0.334402084351,,,,,,,,,,,,,,,,,,,,,,,,,,,,0.71,0.51444196701,0.000940084457397,0.334402084351,1,w,1172.50010514,,,,,,,,,,,,,,,,,,,,,,,,,,,,,,2015_Jun_05_1044,59.8888552548,LearningTask,001,43,
200,s,-200,,,,,,,,,,,,,,,,,2,0,2,0,5,0,20,2,,,,,,,,,,,,,,,,,,,,,,,,1172.50164509,s,1,None,0,,,,,,,,0.400907039642,,,,,,,,,,,,,,,,,,,,,,,,,,,,1.86,0.513884067535,0.00102806091309,0.400907039642,1,s,1175.50271297,,,,,,,,,,,,,,,,,,,,,,,,,,,,,,2015_Jun_05_1044,59.8888552548,LearningTask,001,43,
200,s,-200,,,,,,,,,,,,,,,,,2,0,2,0,5,1,21,2,,,,,,,,,,,,,,,,,,,,,,,,1175.5043931,s,1,None,0,,,,,,,,0.417621850967,,,,,,,,,,,,,,,,,,,,,,,,,,,,0.71,0.514618873596,0.00088906288147,0.417621850967,1,s,1178.50632811,,,,,,,,,,,,,,,,,,,,,,,,,,,,,,2015_Jun_05_1044,59.8888552548,LearningTask,001,43,
-200,q,200,,,,,,,,,,,,,,,,,2,0,2,0,5,2,22,1,,,,,,,,,,,,,,,,,,,,,,,,1178.50792909,q,1,None,0,,,,,,,,0.334238052368,,,,,,,,,,,,,,,,,,,,,,,,,,,,2.1,0.514155864716,0.000929832458496,0.334238052368,1,q,1181.5096941,,,,,,,,,,,,,,,,,,,,,,,,,,,,,,2015_Jun_05_1044,59.8888552548,LearningTask,001,43,
200,s,-200,,,,,,,,,,,,,,,,,2,0,2,0,5,3,23,2,,,,,,,,,,,,,,,,,,,,,,,,1181.51121616,s,1,None,0,,,,,,,,0.400808095932,,,,,,,,,,,,,,,,,,,,,,,,,,,,1.11,0.514425992966,0.00106692314148,0.400808095932,1,s,1184.51326418,,,,,,,,,,,,,,,,,,,,,,,,,,,,,,2015_Jun_05_1044,59.8888552548,LearningTask,001,43,
-200,a,-200,,,,,,,,,,,,,,,,,2,0,2,0,6,0,24,3,,,,,,,,,,,,,,,,,,,,,,,,1184.51480818,a,1,None,0,,,,,,,,0.317760944366,,,,,,,,,,,,,,,,,,,,,,,,,,,,1.01,0.514250993729,0.00102210044861,0.317760944366,1,a,1187.51606297,,,,,,,,,,,,,,,,,,,,,,,,,,,,,,2015_Jun_05_1044,59.8888552548,LearningTask,001,43,
-200,a,-200,,,,,,,,,,,,,,,,,2,0,2,0,6,1,25,3,,,,,,,,,,,,,,,,,,,,,,,,1187.51776218,a,1,None,0,,,,,,,,0.367158889771,,,,,,,,,,,,,,,,,,,,,,,,,,,,1.89,0.514807939529,0.00090479850769,0.367158889771,1,a,1190.51979613,,,,,,,,,,,,,,,,,,,,,,,,,,,,,,2015_Jun_05_1044,59.8888552548,LearningTask,001,43,
200,s,-200,,,,,,,,,,,,,,,,,2,0,2,0,6,2,26,2,,,,,,,,,,,,,,,,,,,,,,,,1190.52139902,s,1,None,0,,,,,,,,0.434499979019,,,,,,,,,,,,,,,,,,,,,,,,,,,,0.86,0.514222860336,0.000939846038818,0.434499979019,1,s,1193.52329397,,,,,,,,,,,,,,,,,,,,,,,,,,,,,,2015_Jun_05_1044,59.8888552548,LearningTask,001,43,
200,s,-200,,,,,,,,,,,,,,,,,2,0,2,0,6,3,27,2,,,,,,,,,,,,,,,,,,,,,,,,1193.52484417,s,1,None,0,,,,,,,,0.334393978119,,,,,,,,,,,,,,,,,,,,,,,,,,,,0.47,0.513914823532,0.00098180770874,0.334393978119,1,s,1196.52696514,,,,,,,,,,,,,,,,,,,,,,,,,,,,,,2015_Jun_05_1044,59.8888552548,LearningTask,001,43,
-200,a,-200,,,,,,,,,,,,,,,,,2,0,2,0,7,0,28,3,,,,,,,,,,,,,,,,,,,,,,,,1196.52854514,a,1,None,0,,,,,,,,0.334451913834,,,,,,,,,,,,,,,,,,,,,,,,,,,,4.09,0.513922929764,0.00100994110107,0.334451913834,1,a,1199.52980018,,,,,,,,,,,,,,,,,,,,,,,,,,,,,,2015_Jun_05_1044,59.8888552548,LearningTask,001,43,
-200,a,-200,,,,,,,,,,,,,,,,,2,0,2,0,7,1,29,3,,,,,,,,,,,,,,,,,,,,,,,,1199.53157496,a,1,None,0,,,,,,,,0.384430885315,,,,,,,,,,,,,,,,,,,,,,,,,,,,1.03,0.514676809311,0.000893831253052,0.384430885315,1,a,1202.53343797,,,,,,,,,,,,,,,,,,,,,,,,,,,,,,2015_Jun_05_1044,59.8888552548,LearningTask,001,43,
200,s,-200,,,,,,,,,,,,,,,,,2,0,2,0,7,2,30,2,,,,,,,,,,,,,,,,,,,,,,,,1202.53508711,s,1,None,0,,,,,,,,0.367707014084,,,,,,,,,,,,,,,,,,,,,,,,,,,,1.19,0.513797044754,0.000922203063965,0.367707014084,1,s,1205.53659296,,,,,,,,,,,,,,,,,,,,,,,,,,,,,,2015_Jun_05_1044,59.8888552548,LearningTask,001,43,
-200,q,200,,,,,,,,,,,,,,,,,2,0,2,0,7,3,31,1,,,,,,,,,,,,,,,,,,,,,,,,1205.53810716,q,1,None,0,,,,,,,,0.35098695755,,,,,,,,,,,,,,,,,,,,,,,,,,,,4.21,0.51428604126,0.000935077667236,0.35098695755,1,q,1208.54046416,,,,,,,,,,,,,,,,,,,,,,,,,,,,,,2015_Jun_05_1044,59.8888552548,LearningTask,001,43,
200,w,200,,,,,,,,,,,,,,,,,2,0,2,0,8,0,32,0,,,,,,,,,,,,,,,,,,,,,,,,1208.54200411,w,1,None,0,,,,,,,,0.384109020233,,,,,,,,,,,,,,,,,,,,,,,,,,,,3.88,0.513873100281,0.00104212760925,0.384109020233,1,w,1211.54334903,,,,,,,,,,,,,,,,,,,,,,,,,,,,,,2015_Jun_05_1044,59.8888552548,LearningTask,001,43,
200,s,-200,,,,,,,,,,,,,,,,,2,0,2,0,8,1,33,2,,,,,,,,,,,,,,,,,,,,,,,,1211.54512405,s,1,None,0,,,,,,,,0.417756080627,,,,,,,,,,,,,,,,,,,,,,,,,,,,0.34,0.513823986053,0.00087308883667,0.417756080627,1,s,1214.54670119,,,,,,,,,,,,,,,,,,,,,,,,,,,,,,2015_Jun_05_1044,59.8888552548,LearningTask,001,43,
200,w,200,,,,,,,,,,,,,,,,,2,0,2,0,8,2,34,0,,,,,,,,,,,,,,,,,,,,,,,,1214.54833817,w,1,None,0,,,,,,,,0.401062965393,,,,,,,,,,,,,,,,,,,,,,,,,,,,1.89,0.513931035995,0.000967025756836,0.401062965393,1,w,1217.54993105,,,,,,,,,,,,,,,,,,,,,,,,,,,,,,2015_Jun_05_1044,59.8888552548,LearningTask,001,43,
200,w,200,,,,,,,,,,,,,,,,,2,0,2,0,8,3,35,0,,,,,,,,,,,,,,,,,,,,,,,,1217.55143118,w,1,None,0,,,,,,,,0.383996009827,,,,,,,,,,,,,,,,,,,,,,,,,,,,0.81,0.514428853989,0.000935077667236,0.383996009827,1,w,1220.55370116,,,,,,,,,,,,,,,,,,,,,,,,,,,,,,2015_Jun_05_1044,59.8888552548,LearningTask,001,43,
200,s,-200,,,,,,,,,,,,,,,,,2,0,2,0,9,0,36,2,,,,,,,,,,,,,,,,,,,,,,,,1220.55531502,s,1,None,0,,,,,,,,0.450971126556,,,,,,,,,,,,,,,,,,,,,,,,,,,,4.23,0.513912916183,0.00106310844421,0.450971126556,1,s,1223.55660415,,,,,,,,,,,,,,,,,,,,,,,,,,,,,,2015_Jun_05_1044,59.8888552548,LearningTask,001,43,
-200,a,-200,,,,,,,,,,,,,,,,,2,0,2,0,9,1,37,3,,,,,,,,,,,,,,,,,,,,,,,,1223.55825901,a,1,None,0,,,,,,,,0.350514888763,,,,,,,,,,,,,,,,,,,,,,,,,,,,4.24,0.514824867249,0.00087308883667,0.350514888763,1,a,1226.56011701,,,,,,,,,,,,,,,,,,,,,,,,,,,,,,2015_Jun_05_1044,59.8888552548,LearningTask,001,43,
-200,a,-200,,,,,,,,,,,,,,,,,2,0,2,0,9,2,38,3,,,,,,,,,,,,,,,,,,,,,,,,1226.56167197,a,1,None,0,,,,,,,,0.400550842285,,,,,,,,,,,,,,,,,,,,,,,,,,,,1.03,0.514101028442,0.000943899154663,0.400550842285,1,a,1229.56334805,,,,,,,,,,,,,,,,,,,,,,,,,,,,,,2015_Jun_05_1044,59.8888552548,LearningTask,001,43,
-200,q,200,,,,,,,,,,,,,,,,,2,0,2,0,9,3,39,1,,,,,,,,,,,,,,,,,,,,,,,,1229.56484008,q,1,None,0,,,,,,,,0.3510658741,,,,,,,,,,,,,,,,,,,,,,,,,,,,1.77,0.514325141907,0.00106906890869,0.3510658741,1,q,1232.56725502,,,,,,,,,,,,,,,,,,,,,,,,,,,,,,2015_Jun_05_1044,59.8888552548,LearningTask,001,43,
-200,q,200,,,,,,,,,,,,,,,,,2,0,2,0,10,0,40,1,,,,,,,,,,,,,,,,,,,,,,,,1232.56880713,q,1,None,0,,,,,,,,0.367587089539,,,,,,,,,,,,,,,,,,,,,,,,,,,,0.39,0.514205932617,0.00106978416443,0.367587089539,1,q,1235.57069707,,,,,,,,,,,,,,,,,,,,,,,,,,,,,,2015_Jun_05_1044,59.8888552548,LearningTask,001,43,
-200,q,200,,,,,,,,,,,,,,,,,2,0,2,0,10,1,41,1,,,,,,,,,,,,,,,,,,,,,,,,1235.57235909,q,1,None,0,,,,,,,,0.350546121597,,,,,,,,,,,,,,,,,,,,,,,,,,,,2.24,0.514050960541,0.000924110412598,0.350546121597,1,q,1238.573277,,,,,,,,,,,,,,,,,,,,,,,,,,,,,,2015_Jun_05_1044,59.8888552548,LearningTask,001,43,
-200,q,200,,,,,,,,,,,,,,,,,2,0,2,0,10,2,42,1,,,,,,,,,,,,,,,,,,,,,,,,1238.5748651,q,1,None,0,,,,,,,,0.334270000458,,,,,,,,,,,,,,,,,,,,,,,,,,,,3.78,0.514304161072,0.000929117202759,0.334270000458,1,q,1241.57698512,,,,,,,,,,,,,,,,,,,,,,,,,,,,,,2015_Jun_05_1044,59.8888552548,LearningTask,001,43,
-200,a,-200,,,,,,,,,,,,,,,,,2,0,2,0,10,3,43,3,,,,,,,,,,,,,,,,,,,,,,,,1241.57860017,a,1,None,0,,,,,,,,0.38458108902,,,,,,,,,,,,,,,,,,,,,,,,,,,,2.25,0.514293909073,0.00094199180603,0.38458108902,1,a,1244.58037806,,,,,,,,,,,,,,,,,,,,,,,,,,,,,,2015_Jun_05_1044,59.8888552548,LearningTask,001,43,
200,w,200,,,,,,,,,,,,,,,,,2,0,2,0,11,0,44,0,,,,,,,,,,,,,,,,,,,,,,,,1244.58197308,w,1,None,0,,,,,,,,0.334416151047,,,,,,,,,,,,,,,,,,,,,,,,,,,,3.92,0.514294862747,0.000874996185303,0.334416151047,1,w,1247.58331203,,,,,,,,,,,,,,,,,,,,,,,,,,,,,,2015_Jun_05_1044,59.8888552548,LearningTask,001,43,
-200,q,200,,,,,,,,,,,,,,,,,2,0,2,0,11,1,45,1,,,,,,,,,,,,,,,,,,,,,,,,1247.58493519,q,1,None,0,,,,,,,,0.317393064499,,,,,,,,,,,,,,,,,,,,,,,,,,,,0.95,0.51487994194,0.000929832458496,0.317393064499,1,q,1250.58737707,,,,,,,,,,,,,,,,,,,,,,,,,,,,,,2015_Jun_05_1044,59.8888552548,LearningTask,001,43,
-200,q,200,,,,,,,,,,,,,,,,,2,0,2,0,11,2,46,1,,,,,,,,,,,,,,,,,,,,,,,,1250.58893204,q,1,None,0,,,,,,,,0.334231853485,,,,,,,,,,,,,,,,,,,,,,,,,,,,0.31,0.514204025269,0.000921010971069,0.334231853485,1,q,1253.59032702,,,,,,,,,,,,,,,,,,,,,,,,,,,,,,2015_Jun_05_1044,59.8888552548,LearningTask,001,43,
200,w,200,,,,,,,,,,,,,,,,,2,0,2,0,11,3,47,0,,,,,,,,,,,,,,,,,,,,,,,,1253.59193516,w,1,None,0,,,,,,,,0.351011037827,,,,,,,,,,,,,,,,,,,,,,,,,,,,4.05,0.514086008072,0.000971078872681,0.351011037827,1,w,1256.59365416,,,,,,,,,,,,,,,,,,,,,,,,,,,,,,2015_Jun_05_1044,59.8888552548,LearningTask,001,43,
-200,a,-200,,,,,,,,,,,,,,,,,2,0,2,0,12,0,48,3,,,,,,,,,,,,,,,,,,,,,,,,1259.59716916,a,1,None,0,,,,,,,,0.383870124817,,,,,,,,,,,,,,,,,,,,,,,,,,,,3.85,0.51428103447,0.000869035720825,0.484135866165,0,q,1259.59688115,3.82,0.516120910645,0.00100898742676,0.383870124817,1,a,1262.60029006,,,,,,,,,,,,,,,,,,,,,,,2015_Jun_05_1044,59.8888552548,LearningTask,001,43,
200,s,-200,,,,,,,,,,,,,,,,,2,0,2,0,12,1,49,2,,,,,,,,,,,,,,,,,,,,,,,,1262.60190415,s,1,None,0,,,,,,,,0.467559814453,,,,,,,,,,,,,,,,,,,,,,,,,,,,2.05,0.514320135117,0.000977993011475,0.467559814453,1,s,1265.60375619,,,,,,,,,,,,,,,,,,,,,,,,,,,,,,2015_Jun_05_1044,59.8888552548,LearningTask,001,43,
-200,a,-200,,,,,,,,,,,,,,,,,2,0,2,0,12,2,50,3,,,,,,,,,,,,,,,,,,,,,,,,1265.60527897,a,1,None,0,,,,,,,,0.5181889534,,,,,,,,,,,,,,,,,,,,,,,,,,,,1.79,0.514275789261,0.000959873199463,0.5181889534,1,a,1268.60703015,,,,,,,,,,,,,,,,,,,,,,,,,,,,,,2015_Jun_05_1044,59.8888552548,LearningTask,001,43,
200,w,200,,,,,,,,,,,,,,,,,2,0,2,0,12,3,51,0,,,,,,,,,,,,,,,,,,,,,,,,1268.60860205,w,1,None,0,,,,,,,,0.384389162064,,,,,,,,,,,,,,,,,,,,,,,,,,,,0.89,0.514625072479,0.000882148742676,0.384389162064,1,w,1271.61036706,,,,,,,,,,,,,,,,,,,,,,,,,,,,,,2015_Jun_05_1044,59.8888552548,LearningTask,001,43,
-200,q,200,,,,,,,,,,,,,,,,,2,0,2,0,13,0,52,1,,,,,,,,,,,,,,,,,,,,,,,,1271.61191416,q,1,None,0,,,,,,,,0.384093999863,,,,,,,,,,,,,,,,,,,,,,,,,,,,3.91,0.514456033707,0.000921964645386,0.384093999863,1,q,1274.61383605,,,,,,,,,,,,,,,,,,,,,,,,,,,,,,2015_Jun_05_1044,59.8888552548,LearningTask,001,43,
200,s,-200,,,,,,,,,,,,,,,,,2,0,2,0,13,1,53,2,,,,,,,,,,,,,,,,,,,,,,,,1274.61535501,s,1,None,0,,,,,,,,0.484491109848,,,,,,,,,,,,,,,,,,,,,,,,,,,,1.08,0.514231920242,0.000952005386353,0.484491109848,1,s,1277.61740518,,,,,,,,,,,,,,,,,,,,,,,,,,,,,,2015_Jun_05_1044,59.8888552548,LearningTask,001,43,
200,w,200,,,,,,,,,,,,,,,,,2,0,2,0,13,2,54,0,,,,,,,,,,,,,,,,,,,,,,,,1277.61893296,w,1,None,0,,,,,,,,0.417631864548,,,,,,,,,,,,,,,,,,,,,,,,,,,,3.9,0.513964176178,0.000992059707642,0.417631864548,1,w,1280.62020516,,,,,,,,,,,,,,,,,,,,,,,,,,,,,,2015_Jun_05_1044,59.8888552548,LearningTask,001,43,
-200,q,200,,,,,,,,,,,,,,,,,2,0,2,0,13,3,55,1,,,,,,,,,,,,,,,,,,,,,,,,1280.62185097,q,1,None,0,,,,,,,,0.30077290535,,,,,,,,,,,,,,,,,,,,,,,,,,,,0.27,0.514611959457,0.000895977020264,0.30077290535,1,q,1283.62390304,,,,,,,,,,,,,,,,,,,,,,,,,,,,,,2015_Jun_05_1044,59.8888552548,LearningTask,001,43,
200,w,200,,,,,,,,,,,,,,,,,2,0,2,0,14,0,56,0,,,,,,,,,,,,,,,,,,,,,,,,1283.62545013,w,1,None,0,,,,,,,,0.36739397049,,,,,,,,,,,,,,,,,,,,,,,,,,,,2.19,0.514413118362,0.000926971435547,0.36739397049,1,w,1286.62802911,,,,,,,,,,,,,,,,,,,,,,,,,,,,,,2015_Jun_05_1044,59.8888552548,LearningTask,001,43,
-200,q,200,,,,,,,,,,,,,,,,,2,0,2,0,14,1,57,1,,,,,,,,,,,,,,,,,,,,,,,,1286.6296401,q,1,None,0,,,,,,,,0.384053945541,,,,,,,,,,,,,,,,,,,,,,,,,,,,1.8,0.513480901718,0.00092887878418,0.384053945541,1,q,1289.63071799,,,,,,,,,,,,,,,,,,,,,,,,,,,,,,2015_Jun_05_1044,59.8888552548,LearningTask,001,43,
200,s,-200,,,,,,,,,,,,,,,,,2,0,2,0,14,2,58,2,,,,,,,,,,,,,,,,,,,,,,,,1289.63235307,s,1,None,0,,,,,,,,0.417729854584,,,,,,,,,,,,,,,,,,,,,,,,,,,,0.52,0.51376414299,0.000925064086914,0.417729854584,1,s,1292.63427901,,,,,,,,,,,,,,,,,,,,,,,,,,,,,,2015_Jun_05_1044,59.8888552548,LearningTask,001,43,
200,w,200,,,,,,,,,,,,,,,,,2,0,2,0,14,3,59,0,,,,,,,,,,,,,,,,,,,,,,,,1292.63596702,w,1,None,0,,,,,,,,0.417676925659,,,,,,,,,,,,,,,,,,,,,,,,,,,,0.89,0.513642787933,0.000964879989624,0.417676925659,1,w,1295.63758206,,,,,,,,,,,,,,,,,,,,,,,,,,,,,,2015_Jun_05_1044,59.8888552548,LearningTask,001,43,
200,s,-200,,,,,,,,,,,,,,,,,2,0,2,0,15,0,60,2,,,,,,,,,,,,,,,,,,,,,,,,1295.63913012,s,1,None,0,,,,,,,,0.450418949127,,,,,,,,,,,,,,,,,,,,,,,,,,,,0.85,0.514539957047,0.00102591514587,0.450418949127,1,s,1298.64045,,,,,,,,,,,,,,,,,,,,,,,,,,,,,,2015_Jun_05_1044,59.8888552548,LearningTask,001,43,
-200,a,-200,,,,,,,,,,,,,,,,,2,0,2,0,15,1,61,3,,,,,,,,,,,,,,,,,,,,,,,,1298.64218903,a,1,None,0,,,,,,,,0.434442043304,,,,,,,,,,,,,,,,,,,,,,,,,,,,4.14,0.514382839203,0.000927925109863,0.434442043304,1,a,1301.64387512,,,,,,,,,,,,,,,,,,,,,,,,,,,,,,2015_Jun_05_1044,59.8888552548,LearningTask,001,43,
-200,a,-200,,,,,,,,,,,,,,,,,2,0,2,0,15,2,62,3,,,,,,,,,,,,,,,,,,,,,,,,1301.64545202,a,1,None,0,,,,,,,,0.401001214981,,,,,,,,,,,,,,,,,,,,,,,,,,,,3.97,0.514310121536,0.000931978225708,0.401001214981,1,a,1304.64770699,,,,,,,,,,,,,,,,,,,,,,,,,,,,,,2015_Jun_05_1044,59.8888552548,LearningTask,001,43,
-200,q,200,,,,,,,,,,,,,,,,,2,0,2,0,15,3,63,1,,,,,,,,,,,,,,,,,,,,,,,,1304.64940619,q,1,None,0,,,,,,,,0.334240198135,,,,,,,,,,,,,,,,,,,,,,,,,,,,0.6,0.513571977615,0.00095009803772,0.334240198135,1,q,1307.65089798,,,,,,,,,,,,,,,,,,,,,,,,,,,,,,2015_Jun_05_1044,59.8888552548,LearningTask,001,43,
200,s,-200,,,,,,,,,,,,,,,,,2,0,2,0,16,0,64,2,,,,,,,,,,,,,,,,,,,,,,,,1307.65249515,s,1,None,0,,,,,,,,0.400269031525,,,,,,,,,,,,,,,,,,,,,,,,,,,,1.98,0.514564037323,0.000937938690186,0.400269031525,1,s,1310.65477204,,,,,,,,,,,,,,,,,,,,,,,,,,,,,,2015_Jun_05_1044,59.8888552548,LearningTask,001,43,
200,w,200,,,,,,,,,,,,,,,,,2,0,2,0,16,1,65,0,,,,,,,,,,,,,,,,,,,,,,,,1310.65657616,w,1,None,0,,,,,,,,0.367389917374,,,,,,,,,,,,,,,,,,,,,,,,,,,,1.18,0.51341509819,0.000926971435547,0.367389917374,1,w,1313.65756512,,,,,,,,,,,,,,,,,,,,,,,,,,,,,,2015_Jun_05_1044,59.8888552548,LearningTask,001,43,
200,w,200,,,,,,,,,,,,,,,,,2,0,2,0,16,2,66,0,,,,,,,,,,,,,,,,,,,,,,,,1313.65916109,w,1,None,0,,,,,,,,0.334305047989,,,,,,,,,,,,,,,,,,,,,,,,,,,,2.15,0.514000892639,0.000946044921875,0.334305047989,1,w,1316.66124606,,,,,,,,,,,,,,,,,,,,,,,,,,,,,,2015_Jun_05_1044,59.8888552548,LearningTask,001,43,
200,s,-200,,,,,,,,,,,,,,,,,2,0,2,0,16,3,67,2,,,,,,,,,,,,,,,,,,,,,,,,1316.66279697,s,1,None,0,,,,,,,,0.384008169174,,,,,,,,,,,,,,,,,,,,,,,,,,,,4.13,0.513862848282,0.000952005386353,0.384008169174,1,s,1319.6640451,,,,,,,,,,,,,,,,,,,,,,,,,,,,,,2015_Jun_05_1044,59.8888552548,LearningTask,001,43,
-200,a,-200,,,,,,,,,,,,,,,,,2,0,2,0,17,0,68,3,,,,,,,,,,,,,,,,,,,,,,,,1319.66557908,a,1,None,0,,,,,,,,0.450645923615,,,,,,,,,,,,,,,,,,,,,,,,,,,,1.05,0.515026092529,0.000900983810425,0.450645923615,1,a,1322.66778898,,,,,,,,,,,,,,,,,,,,,,,,,,,,,,2015_Jun_05_1044,59.8888552548,LearningTask,001,43,
200,s,-200,,,,,,,,,,,,,,,,,2,0,2,0,17,1,69,2,,,,,,,,,,,,,,,,,,,,,,,,1322.66938305,s,1,None,0,,,,,,,,0.384018182755,,,,,,,,,,,,,,,,,,,,,,,,,,,,1.02,0.513845920563,0.000916957855225,0.384018182755,1,s,1325.67075014,,,,,,,,,,,,,,,,,,,,,,,,,,,,,,2015_Jun_05_1044,59.8888552548,LearningTask,001,43,
200,w,200,,,,,,,,,,,,,,,,,2,0,2,0,17,2,70,0,,,,,,,,,,,,,,,,,,,,,,,,1325.67241502,w,1,None,0,,,,,,,,0.400785923004,,,,,,,,,,,,,,,,,,,,,,,,,,,,0.7,0.514585018158,0.000916957855225,0.400785923004,1,w,1328.67465115,,,,,,,,,,,,,,,,,,,,,,,,,,,,,,2015_Jun_05_1044,59.8888552548,LearningTask,001,43,
200,s,-200,,,,,,,,,,,,,,,,,2,0,2,0,17,3,71,2,,,,,,,,,,,,,,,,,,,,,,,,1328.67628598,s,1,None,0,,,,,,,,0.417624950409,,,,,,,,,,,,,,,,,,,,,,,,,,,,1.95,0.513674020767,0.000964879989624,0.417624950409,1,s,1331.67777014,,,,,,,,,,,,,,,,,,,,,,,,,,,,,,2015_Jun_05_1044,59.8888552548,LearningTask,001,43,
-200,q,200,,,,,,,,,,,,,,,,,2,0,2,0,18,0,72,1,,,,,,,,,,,,,,,,,,,,,,,,1331.67939115,q,1,None,0,,,,,,,,0.367484092712,,,,,,,,,,,,,,,,,,,,,,,,,,,,4.06,0.513753890991,0.000936031341553,0.367484092712,1,q,1334.6812911,,,,,,,,,,,,,,,,,,,,,,,,,,,,,,2015_Jun_05_1044,59.8888552548,LearningTask,001,43,
-200,q,200,,,,,,,,,,,,,,,,,2,0,2,0,18,1,73,1,,,,,,,,,,,,,,,,,,,,,,,,1334.68292117,q,1,None,0,,,,,,,,0.400762081146,,,,,,,,,,,,,,,,,,,,,,,,,,,,3.98,0.51384806633,0.000978946685791,0.400762081146,1,q,1337.68412209,,,,,,,,,,,,,,,,,,,,,,,,,,,,,,2015_Jun_05_1044,59.8888552548,LearningTask,001,43,
-200,a,-200,,,,,,,,,,,,,,,,,2,0,2,0,18,2,74,3,,,,,,,,,,,,,,,,,,,,,,,,1337.68587518,a,1,None,0,,,,,,,,0.45086312294,,,,,,,,,,,,,,,,,,,,,,,,,,,,4.13,0.51456284523,0.000945806503296,0.45086312294,1,a,1340.68739605,,,,,,,,,,,,,,,,,,,,,,,,,,,,,,2015_Jun_05_1044,59.8888552548,LearningTask,001,43,
200,w,200,,,,,,,,,,,,,,,,,2,0,2,0,18,3,75,0,,,,,,,,,,,,,,,,,,,,,,,,1340.68898916,w,1,None,0,,,,,,,,0.333630800247,,,,,,,,,,,,,,,,,,,,,,,,,,,,1.77,0.514910936356,0.000893831253052,0.333630800247,1,w,1343.69075012,,,,,,,,,,,,,,,,,,,,,,,,,,,,,,2015_Jun_05_1044,59.8888552548,LearningTask,001,43,
-200,q,200,,,,,,,,,,,,,,,,,2,0,2,0,19,0,76,1,,,,,,,,,,,,,,,,,,,,,,,,1343.692276,q,1,None,0,,,,,,,,0.283808946609,,,,,,,,,,,,,,,,,,,,,,,,,,,,1.84,0.515011072159,0.000941038131714,0.283808946609,1,q,1346.69436908,,,,,,,,,,,,,,,,,,,,,,,,,,,,,,2015_Jun_05_1044,59.8888552548,LearningTask,001,43,
200,w,200,,,,,,,,,,,,,,,,,2,0,2,0,19,1,77,0,,,,,,,,,,,,,,,,,,,,,,,,1346.69597101,w,1,None,0,,,,,,,,0.351149082184,,,,,,,,,,,,,,,,,,,,,,,,,,,,1.07,0.514223814011,0.00092601776123,0.351149082184,1,w,1349.69759703,,,,,,,,,,,,,,,,,,,,,,,,,,,,,,2015_Jun_05_1044,59.8888552548,LearningTask,001,43,
-200,a,-200,,,,,,,,,,,,,,,,,2,0,2,0,19,2,78,3,,,,,,,,,,,,,,,,,,,,,,,,1349.69930315,a,1,None,0,,,,,,,,0.401029109955,,,,,,,,,,,,,,,,,,,,,,,,,,,,0.29,0.514052867889,0.000948905944824,0.401029109955,1,a,1352.70113802,,,,,,,,,,,,,,,,,,,,,,,,,,,,,,2015_Jun_05_1044,59.8888552548,LearningTask,001,43,
200,w,200,,,,,,,,,,,,,,,,,2,0,2,0,19,3,79,0,,,,,,,,,,,,,,,,,,,,,,,,1352.70264316,w,1,None,0,,,,,,,,0.367434024811,,,,,,,,,,,,,,,,,,,,,,,,,,,,2.19,0.514214038849,0.00113105773926,0.367434024811,1,w,1355.70432615,,,,,,,,,,,,,,,,,,,,,,,,,,,,,,2015_Jun_05_1044,59.8888552548,LearningTask,001,43,
200,s,-200,,,,,,,,,,,,,,,,,2,0,2,0,20,0,80,2,,,,,,,,,,,,,,,,,,,,,,,,1355.70616698,s,1,None,0,,,,,,,,0.366974830627,,,,,,,,,,,,,,,,,,,,,,,,,,,,3.79,0.51454782486,0.000882863998413,0.366974830627,1,s,1358.70758009,,,,,,,,,,,,,,,,,,,,,,,,,,,,,,2015_Jun_05_1044,59.8888552548,LearningTask,001,43,
-200,q,200,,,,,,,,,,,,,,,,,2,0,2,0,20,1,81,1,,,,,,,,,,,,,,,,,,,,,,,,1358.70921516,q,1,None,0,,,,,,,,0.300648927689,,,,,,,,,,,,,,,,,,,,,,,,,,,,4.01,0.514623880386,0.000902891159058,0.300648927689,1,q,1361.71102619,,,,,,,,,,,,,,,,,,,,,,,,,,,,,,2015_Jun_05_1044,59.8888552548,LearningTask,001,43,
200,s,-200,,,,,,,,,,,,,,,,,2,0,2,0,20,2,82,2,,,,,,,,,,,,,,,,,,,,,,,,1361.71274996,s,1,None,0,,,,,,,,0.384726047516,,,,,,,,,,,,,,,,,,,,,,,,,,,,3.92,0.514090061188,0.000914096832275,0.384726047516,1,s,1364.71442008,,,,,,,,,,,,,,,,,,,,,,,,,,,,,,2015_Jun_05_1044,59.8888552548,LearningTask,001,43,
200,w,200,,,,,,,,,,,,,,,,,2,0,2,0,20,3,83,0,,,,,,,,,,,,,,,,,,,,,,,,1364.71598697,w,1,None,0,,,,,,,,0.28457903862,,,,,,,,,,,,,,,,,,,,,,,,,,,,0.46,0.51433300972,0.00104904174805,0.28457903862,1,w,1367.7178762,,,,,,,,,,,,,,,,,,,,,,,,,,,,,,2015_Jun_05_1044,59.8888552548,LearningTask,001,43,
-200,q,200,,,,,,,,,,,,,,,,,2,0,2,0,21,0,84,1,,,,,,,,,,,,,,,,,,,,,,,,1367.71941018,q,1,None,0,,,,,,,,0.33402299881,,,,,,,,,,,,,,,,,,,,,,,,,,,,3.77,0.514309883118,0.000916957855225,0.33402299881,1,q,1370.72112012,,,,,,,,,,,,,,,,,,,,,,,,,,,,,,2015_Jun_05_1044,59.8888552548,LearningTask,001,43,
200,w,200,,,,,,,,,,,,,,,,,2,0,2,0,21,1,85,0,,,,,,,,,,,,,,,,,,,,,,,,1370.72275114,w,1,None,0,,,,,,,,0.368008852005,,,,,,,,,,,,,,,,,,,,,,,,,,,,3.87,0.514198064804,0.000935077667236,0.368008852005,1,w,1373.72442698,,,,,,,,,,,,,,,,,,,,,,,,,,,,,,2015_Jun_05_1044,59.8888552548,LearningTask,001,43,
-200,q,200,,,,,,,,,,,,,,,,,2,0,2,0,21,2,86,1,,,,,,,,,,,,,,,,,,,,,,,,1373.72594118,q,1,None,0,,,,,,,,0.284129858017,,,,,,,,,,,,,,,,,,,,,,,,,,,,0.62,0.514373064041,0.000894069671631,0.284129858017,1,q,1376.72834206,,,,,,,,,,,,,,,,,,,,,,,,,,,,,,2015_Jun_05_1044,59.8888552548,LearningTask,001,43,
-200,a,-200,,,,,,,,,,,,,,,,,2,0,2,0,21,3,87,3,,,,,,,,,,,,,,,,,,,,,,,,1376.72999215,a,1,None,0,,,,,,,,0.384450912476,,,,,,,,,,,,,,,,,,,,,,,,,,,,0.68,0.51394200325,0.000933885574341,0.384450912476,1,a,1379.73112607,,,,,,,,,,,,,,,,,,,,,,,,,,,,,,2015_Jun_05_1044,59.8888552548,LearningTask,001,43,
-200,q,200,,,,,,,,,,,,,,,,,2,0,2,0,22,0,88,1,,,,,,,,,,,,,,,,,,,,,,,,1379.7327261,q,1,None,0,,,,,,,,0.334290981293,,,,,,,,,,,,,,,,,,,,,,,,,,,,0.31,0.514671087265,0.00088095664978,0.334290981293,1,q,1382.73450899,,,,,,,,,,,,,,,,,,,,,,,,,,,,,,2015_Jun_05_1044,59.8888552548,LearningTask,001,43,
200,s,-200,,,,,,,,,,,,,,,,,2,0,2,0,22,1,89,2,,,,,,,,,,,,,,,,,,,,,,,,1382.73613,s,1,None,0,,,,,,,,0.467652082443,,,,,,,,,,,,,,,,,,,,,,,,,,,,1.17,0.514298915863,0.000924825668335,0.467652082443,1,s,1385.73792601,,,,,,,,,,,,,,,,,,,,,,,,,,,,,,2015_Jun_05_1044,59.8888552548,LearningTask,001,43,
-200,a,-200,,,,,,,,,,,,,,,,,2,0,2,0,22,2,90,3,,,,,,,,,,,,,,,,,,,,,,,,1385.739568,a,1,None,0,,,,,,,,0.417886018753,,,,,,,,,,,,,,,,,,,,,,,,,,,,0.32,0.514019012451,0.00103306770325,0.417886018753,1,a,1388.7415421,,,,,,,,,,,,,,,,,,,,,,,,,,,,,,2015_Jun_05_1044,59.8888552548,LearningTask,001,43,
-200,a,-200,,,,,,,,,,,,,,,,,2,0,2,0,22,3,91,3,,,,,,,,,,,,,,,,,,,,,,,,1388.74306917,a,1,None,0,,,,,,,,0.333988189697,,,,,,,,,,,,,,,,,,,,,,,,,,,,0.79,0.51415681839,0.000868797302246,0.333988189697,1,a,1391.74448514,,,,,,,,,,,,,,,,,,,,,,,,,,,,,,2015_Jun_05_1044,59.8888552548,LearningTask,001,43,
-200,a,-200,,,,,,,,,,,,,,,,,2,0,2,0,23,0,92,3,,,,,,,,,,,,,,,,,,,,,,,,1391.74609709,a,1,None,0,,,,,,,,0.350663900375,,,,,,,,,,,,,,,,,,,,,,,,,,,,0.36,0.514802932739,0.000887870788574,0.350663900375,1,a,1394.74792218,,,,,,,,,,,,,,,,,,,,,,,,,,,,,,2015_Jun_05_1044,59.8888552548,LearningTask,001,43,
200,w,200,,,,,,,,,,,,,,,,,2,0,2,0,23,1,93,0,,,,,,,,,,,,,,,,,,,,,,,,1394.74956608,w,1,None,0,,,,,,,,0.384300947189,,,,,,,,,,,,,,,,,,,,,,,,,,,,3.92,0.5140209198,0.00092887878418,0.384300947189,1,w,1397.75146317,,,,,,,,,,,,,,,,,,,,,,,,,,,,,,2015_Jun_05_1044,59.8888552548,LearningTask,001,43,
200,w,200,,,,,,,,,,,,,,,,,2,0,2,0,23,2,94,0,,,,,,,,,,,,,,,,,,,,,,,,1397.75293517,w,1,None,0,,,,,,,,0.351150035858,,,,,,,,,,,,,,,,,,,,,,,,,,,,1.8,0.514228820801,0.00101280212402,0.351150035858,1,w,1400.75480199,,,,,,,,,,,,,,,,,,,,,,,,,,,,,,2015_Jun_05_1044,59.8888552548,LearningTask,001,43,
-200,q,200,,,,,,,,,,,,,,,,,2,0,2,0,23,3,95,1,,,,,,,,,,,,,,,,,,,,,,,,1400.756387,q,1,None,0,,,,,,,,0.300929069519,,,,,,,,,,,,,,,,,,,,,,,,,,,,0.55,0.51432800293,0.00091814994812,0.300929069519,1,q,1403.75787115,,,,,,,,,,,,,,,,,,,,,,,,,,,,,,2015_Jun_05_1044,59.8888552548,LearningTask,001,43,
-200,q,200,,,,,,,,,,,,,,,,,2,0,2,0,24,0,96,1,,,,,,,,,,,,,,,,,,,,,,,,1403.75942302,q,1,None,0,,,,,,,,0.317062854767,,,,,,,,,,,,,,,,,,,,,,,,,,,,2.08,0.514760971069,0.000897884368896,0.317062854767,1,q,1406.76132107,,,,,,,,,,,,,,,,,,,,,,,,,,,,,,2015_Jun_05_1044,59.8888552548,LearningTask,001,43,
-200,a,-200,,,,,,,,,,,,,,,,,2,0,2,0,24,1,97,3,,,,,,,,,,,,,,,,,,,,,,,,1406.76297903,a,1,None,0,,,,,,,,0.418033838272,,,,,,,,,,,,,,,,,,,,,,,,,,,,3.86,0.514180898666,0.000927925109863,0.418033838272,1,a,1409.76487398,,,,,,,,,,,,,,,,,,,,,,,,,,,,,,2015_Jun_05_1044,59.8888552548,LearningTask,001,43,
200,s,-200,,,,,,,,,,,,,,,,,2,0,2,0,24,2,98,2,,,,,,,,,,,,,,,,,,,,,,,,1409.76639819,s,1,None,0,,,,,,,,0.351282119751,,,,,,,,,,,,,,,,,,,,,,,,,,,,4.09,0.514203071594,0.00104117393494,0.351282119751,1,s,1412.768435,,,,,,,,,,,,,,,,,,,,,,,,,,,,,,2015_Jun_05_1044,59.8888552548,LearningTask,001,43,
-200,q,200,,,,,,,,,,,,,,,,,2,0,2,0,24,3,99,1,,,,,,,,,,,,,,,,,,,,,,,,1412.77004218,q,1,None,0,,,,,,,,0.333941936493,,,,,,,,,,,,,,,,,,,,,,,,,,,,2.09,0.513979911804,0.000959873199463,0.333941936493,1,q,1415.77133203,,,,,,,,,,,,,,,,,,,,,,,,,,,,,,2015_Jun_05_1044,59.8888552548,LearningTask,001,43,
,,,,,,,,,,,,,,,,,,,2,0,2,0,,,,,,,,,,,,,,,,,,,,,,,,,,,,,,,,,,,,,,,,,,,,,,,,,,,,,,,,,,,,,,,,,,,,,,,,,,,,,,,,,,,,,,,,,9,31.7475190163,,,,,,,,,,,,,,2015_Jun_05_1044,59.8888552548,LearningTask,001,43,
200,s,-200,,,,,,,,,,,,,,,,,3,0,3,0,0,0,0,2,,,,,,,,,,,,,,,,,,,,,,,,1448.53082514,s,1,None,0,,,,,,,,0.434612035751,,,,,,,,,,,,,,,,,,,,,,,,,,,,4.19,0.509707927704,0.000910043716431,0.434612035751,1,s,1451.52843118,,,,,,,,,,,,,,,,,,,,,,,,,,,,,,2015_Jun_05_1044,59.8888552548,LearningTask,001,43,
200,w,200,,,,,,,,,,,,,,,,,3,0,3,0,0,1,1,0,,,,,,,,,,,,,,,,,,,,,,,,1451.53005719,w,1,None,0,,,,,,,,0.367344141006,,,,,,,,,,,,,,,,,,,,,,,,,,,,1.23,0.51393699646,0.000883102416992,0.367344141006,1,w,1454.53172112,,,,,,,,,,,,,,,,,,,,,,,,,,,,,,2015_Jun_05_1044,59.8888552548,LearningTask,001,43,
-200,q,200,,,,,,,,,,,,,,,,,3,0,3,0,0,2,2,1,,,,,,,,,,,,,,,,,,,,,,,,1454.53328013,q,1,None,0,,,,,,,,0.317615032196,,,,,,,,,,,,,,,,,,,,,,,,,,,,1.15,0.514464855194,0.000900030136108,0.317615032196,1,q,1457.53461504,,,,,,,,,,,,,,,,,,,,,,,,,,,,,,2015_Jun_05_1044,59.8888552548,LearningTask,001,43,
-200,q,200,,,,,,,,,,,,,,,,,3,0,3,0,0,3,3,1,,,,,,,,,,,,,,,,,,,,,,,,1457.53628111,q,1,None,0,,,,,,,,0.317257881165,,,,,,,,,,,,,,,,,,,,,,,,,,,,1.01,0.514453887939,0.000906944274902,0.317257881165,1,q,1460.53801799,,,,,,,,,,,,,,,,,,,,,,,,,,,,,,2015_Jun_05_1044,59.8888552548,LearningTask,001,43,
-200,a,-200,,,,,,,,,,,,,,,,,3,0,3,0,1,0,4,3,,,,,,,,,,,,,,,,,,,,,,,,1460.53968716,a,1,None,0,,,,,,,,0.350713968277,,,,,,,,,,,,,,,,,,,,,,,,,,,,0.63,0.514398097992,0.00103187561035,0.350713968277,1,a,1463.54175997,,,,,,,,,,,,,,,,,,,,,,,,,,,,,,2015_Jun_05_1044,59.8888552548,LearningTask,001,43,
200,w,200,,,,,,,,,,,,,,,,,3,0,3,0,1,1,5,0,,,,,,,,,,,,,,,,,,,,,,,,1463.54327917,w,1,None,0,,,,,,,,0.317363023758,,,,,,,,,,,,,,,,,,,,,,,,,,,,0.3,0.514162063599,0.000960111618042,0.317363023758,1,w,1466.54479003,,,,,,,,,,,,,,,,,,,,,,,,,,,,,,2015_Jun_05_1044,59.8888552548,LearningTask,001,43,
