xPos,corrAns,yPos,corrGoResp,yPosGoStim,xPosGoStim,pracTrials.thisRepN,pracTrials.thisTrialN,pracTrials.thisN,pracTrials.thisIndex,ReDoLoopPrac.thisRepN,ReDoLoopPrac.thisTrialN,ReDoLoopPrac.thisN,ReDoLoopPrac.thisIndex,ReDoLoopPrac.thisTrial,pracStopTrials.thisRepN,pracStopTrials.thisTrialN,pracStopTrials.thisN,pracStopTrials.thisIndex,Blocks.thisRepN,Blocks.thisTrialN,Blocks.thisN,Blocks.thisIndex,Blocks.thisTrial,trials.thisRepN,trials.thisTrialN,trials.thisN,trials.thisIndex,ReDoLoopMain.thisRepN,ReDoLoopMain.thisTrialN,ReDoLoopMain.thisN,ReDoLoopMain.thisIndex,ReDoLoopMain.thisTrial,ok1.keys,ok1.rt,resp.keys,resp.corr,resp.rt,learningStimOnset,learningFixOnset,EndTrialTimeStamp,,beginningSSD,trialType,goStim,goResp.keys,goResp.corr,goResp.rt,goTrailCountOutput,goCumRTOutput,goRTCountOutput,stopTrialCountOutput,stopSuccessCountOutput,omissionCountOutput,commissionCountOutput,fixStopOnset,goStimOnset,stopSignalOnset,key_resp_3.keys,key_resp_3.rt,computedRewardOutput,expName,gender (m/f),age,frameRate,session,date,participant,,,,,,,,,,,,,,,,,,,,,,,,,,,,,,,,,space,0.419970989,,,,,,,,,,,,,,,,,,,,,,,,,,,LearningTask,,,59.97251816,3,2015_May_27_1545,4-200,a,-200,,,,0,0,0,7,0,0,0,0,None,,,,,,,,,,,,,,,,,,,,,a,1,0.400451899,0.509736061,0.002851963,7.524438143,#VALUE!,,,,,,,,,,,,,,,,,,,,LearningTask,,,59.97251816,3,2015_May_27_1545,4-200,a,-200,,,,0,0,0,7,,,,,,,,,,,,,,,,,,,,,,,,,,,,,,,,,,,,,,,,,,,,,,,,,,,,LearningTask,,,59.97251816,3,2015_May_27_1545,4200,s,-200,,,,0,1,1,2,0,0,0,0,None,,,,,,,,,,,,,,,,,,,,,s,1,0.334100962,0.507712126,0.0011971,9.893002987,2.368564844,,,,,,,,,,,,,,,,,,,,LearningTask,,,59.97251816,3,2015_May_27_1545,4200,s,-200,,,,0,1,1,2,,,,,,,,,,,,,,,,,,,,,,,,,,,,,,,,,,,,,,,,,,,,,,,,,,,,LearningTask,,,59.97251816,3,2015_May_27_1545,4200,w,200,,,,0,2,2,0,0,0,0,0,None,,,,,,,,,,,,,,,,,,,,,w,1,0.517544031,0.513744116,0.001381159,12.46157002,2.568567038,,,,,,,,,,,,,,,,,,,,LearningTask,,,59.97251816,3,2015_May_27_1545,4200,w,200,,,,0,2,2,0,,,,,,,,,,,,,,,,,,,,,,,,,,,,,,,,,,,,,,,,,,,,,,,,,,,,LearningTask,,,59.97251816,3,2015_May_27_1545,4-200,a,-200,,,,0,3,3,3,0,0,0,0,None,,,,,,,,,,,,,,,,,,,,,a,1,0.450845003,0.50615716,0.00098896,14.96366906,2.502099037,,,,,,,,,,,,,,,,,,,,LearningTask,,,59.97251816,3,2015_May_27_1545,4-200,a,-200,,,,0,3,3,3,,,,,,,,,,,,,,,,,,,,,,,,,,,,,,,,,,,,,,,,,,,,,,,,,,,,LearningTask,,,59.97251816,3,2015_May_27_1545,4200,s,-200,,,,0,4,4,6,0,0,0,0,None,,,,,,,,,,,,,,,,,,,,,w,0,0.484192133,0.513027906,0.001679897,17.51557517,2.551906109,,,,,,,,,,,,,,,,,,,,LearningTask,,,59.97251816,3,2015_May_27_1545,4200,s,-200,,,,0,4,4,6,1,0,1,0,None,,,,,,,,,,,,,,,,,,,,,s,1,0.550894976,0.516709089,0.001026869,20.0841291,2.568553925,,,,,,,,,,,,,,,,,,,,LearningTask,,,59.97251816,3,2015_May_27_1545,4200,s,-200,,,,0,4,4,6,,,,,,,,,,,,,,,,,,,,,,,,,,,,,,,,,,,,,,,,,,,,,,,,,,,,LearningTask,,,59.97251816,3,2015_May_27_1545,4-200,q,200,,,,0,5,5,9,0,0,0,0,None,,,,,,,,,,,,,,,,,,,,,q,1,0.467737913,0.503314972,0.001590967,22.61971712,2.535588026,,,,,,,,,,,,,,,,,,,,LearningTask,,,59.97251816,3,2015_May_27_1545,4-200,q,200,,,,0,5,5,9,,,,,,,,,,,,,,,,,,,,,,,,,,,,,,,,,,,,,,,,,,,,,,,,,,,,LearningTask,,,59.97251816,3,2015_May_27_1545,4200,w,200,,,,0,6,6,8,0,0,0,0,None,,,,,,,,,,,,,,,,,,,,,w,1,0.400684118,0.500385046,0.000971079,25.08853412,2.468816996,,,,,,,,,,,,,,,,,,,,LearningTask,,,59.97251816,3,2015_May_27_1545,4200,w,200,,,,0,6,6,8,,,,,,,,,,,,,,,,,,,,,,,,,,,,,,,,,,,,,,,,,,,,,,,,,,,,LearningTask,,,59.97251816,3,2015_May_27_1545,4-200,q,200,,,,0,7,7,1,0,0,0,0,None,,,,,,,,,,,,,,,,,,,,,q,1,0.350816011,0.508590937,0.000981092,27.52379203,2.435257912,,,,,,,,,,,,,,,,,,,,LearningTask,,,59.97251816,3,2015_May_27_1545,4-200,q,200,,,,0,7,7,1,,,,,,,,,,,,,,,,,,,,,,,,,,,,,,,,,,,,,,,,,,,,,,,,,,,,LearningTask,,,59.97251816,3,2015_May_27_1545,4-200,q,200,,,,0,8,8,5,0,0,0,0,None,,,,,,,,,,,,,,,,,,,,,s,0,0.434328079,0.501210928,0.001767874,30.04252219,2.518730164,,,,,,,,,,,,,,,,,,,,LearningTask,,,59.97251816,3,2015_May_27_1545,4-200,q,200,,,,0,8,8,5,1,0,1,0,None,,,,,,,,,,,,,,,,,,,,,q,1,0.083796978,0.516499043,0.00101018,32.14428306,2.101760864,,,,,,,,,,,,,,,,,,,,LearningTask,,,59.97251816,3,2015_May_27_1545,4-200,q,200,,,,0,8,8,5,,,,,,,,,,,,,,,,,,,,,,,,,,,,,,,,,,,,,,,,,,,,,,,,,,,,LearningTask,,,59.97251816,3,2015_May_27_1545,4200,w,200,,,,0,9,9,4,0,0,0,0,None,,,,,,,,,,,,,,,,,,,,,s,0,0.451099157,0.509269953,0.000934839,34.69643021,2.55214715,,,,,,,,,,,,,,,,,,,,LearningTask,,,59.97251816,3,2015_May_27_1545,4200,w,200,,,,0,9,9,4,1,0,1,0,None,,,,,,,,,,,,,,,,,,,,,s,0,0.267472982,0.51624012,0.001723051,36.98132014,2.284889936,,,,,,,,,,,,,,,,,,,,LearningTask,,,59.97251816,3,2015_May_27_1545,4200,w,200,,,,0,9,9,4,2,0,2,0,None,,,,,,,,,,,,,,,,,,,,,s,0,0.300850153,0.51659894,0.001394033,39.3000381,2.318717957,,,,,,,,,,,,,,,,,,,,LearningTask,,,59.97251816,3,2015_May_27_1545,4200,w,200,,,,0,9,9,4,3,0,3,0,None,,,,,,,,,,,,,,,,,,,,,s,0,0.183824062,0.516422033,0.001232147,41.50163913,2.201601028,,,,,,,,,,,,,,,,,,,,LearningTask,,,59.97251816,3,2015_May_27_1545,4200,w,200,,,,0,9,9,4,4,0,4,0,None,,,,,,,,,,,,,,,,,,,,,s,0,0.100996017,0.516221046,0.001106977,43.62005019,2.118411064,,,,,,,,,,,,,,,,,,,,LearningTask,,,59.97251816,3,2015_May_27_1545,4200,w,200,,,,0,9,9,4,,,,,,,,,,,,,,,,,,,,,,,,,,,,,,,,,,,,,,,,,,,,,,,,,,,,LearningTask,,,59.97251816,3,2015_May_27_1545,4,,,m,0,200,,,,,,,,,,0,0,0,1,,,,,,,,,,,,,,,,,,,,,,48.64170599,5.021655798,0.25,stop,diamondwhite.gif,m,1,0.484521151,0,0,0,1,0,0,0,0.001523018,0.510793209,0.761216164,,,,LearningTask,,,59.97251816,3,2015_May_27_1545,4,,,m,0,200,,,,,,,,,,0,1,1,1,,,,,,,,,,,,,,,,,,,,,,51.64412498,3.002418995,-1,go,squarecyan.gif,m,1,0.500937939,1,0.500937939,1,1,0,0,0,0.000983953,0.514950037,,,,,LearningTask,,,59.97251816,3,2015_May_27_1545,4,,,z,0,-200,,,,,,,,,,1,0,2,0,,,,,,,,,,,,,,,,,,,,,,54.64658713,3.002462149,0.25,stop,linegray.gif,None,0,,1,0.500937939,1,2,1,0,0,0.00225997,0.51563096,0.765885115,,,,LearningTask,,,59.97251816,3,2015_May_27_1545,4,,,m,0,200,,,,,,,,,,1,1,3,1,,,,,,,,,,,,,,,,,,,,,,57.64953303,3.0029459,0.25,stop,hexagonyellow.gif,None,0,,1,0.500937939,1,3,2,0,0,0.000971079,0.515232086,0.765416145,,,,LearningTask,,,59.97251816,3,2015_May_27_1545,4,,,z,0,-200,,,,,,,,,,2,0,4,0,,,,,,,,,,,,,,,,,,,,,,60.651196,3.00166297,0.25,stop,hexagonyellow.gif,None,0,,1,0.500937939,1,4,3,0,0,0.001033068,0.514840126,0.76524806,,,,LearningTask,,,59.97251816,3,2015_May_27_1545,4,,,m,0,200,,,,,,,,,,2,1,5,1,,,,,,,,,,,,,,,,,,,,,,63.6537962,3.002600193,-1,go,squarecyan.gif,m,1,0.851194143,2,1.352132082,2,4,3,0,0,0.0010221,0.515258074,,,,,LearningTask,,,59.97251816,3,2015_May_27_1545,4,,,z,0,-200,,,,,,,,,,3,0,6,0,,,,,,,,,,,,,,,,,,,,,,66.65605712,3.002260923,0.25,stop,hexagonyellow.gif,m,0,0.434209108,2,1.352132082,2,5,3,0,0,0.001085043,0.515218973,0.76560092,,,,LearningTask,,,59.97251816,3,2015_May_27_1545,4,,,z,0,-200,,,,,,,,,,3,1,7,0,,,,,,,,,,,,,,,,,,,,,,69.65869498,3.002637863,-1,go,triangleorange.gif,None,0,,3,1.352132082,2,5,3,1,0,0.001141787,0.515348911,,,,,LearningTask,,,59.97251816,3,2015_May_27_1545,4,,,z,0,-200,,,,,,,,,,4,0,8,0,,,,,,,,,,,,,,,,,,,,,,72.66087008,3.002175093,0.25,stop,hexagonyellow.gif,None,0,,3,1.352132082,2,6,4,1,0,0.001209021,0.514616013,0.76492095,,,,LearningTask,,,59.97251816,3,2015_May_27_1545,4,,,m,0,200,,,,,,,,,,4,1,9,1,,,,,,,,,,,,,,,,,,,,,,75.66329598,3.002425909,-1,go,invertedtrianglemagenta.gif,m,1,0.467473984,4,1.819606066,3,6,4,1,0,0.001049995,0.515604019,,,,,LearningTask,,,59.97251816,3,2015_May_27_1545,4,,,,,,,,,,,,,,,,,,,,,,,,,,,,,,,,,,,,,,,,,,,,,,,,,,,,,,,,,,space,5.076242924,,LearningTask,,,59.97251816,3,2015_May_27_1545,4,,,,,,,,,,,,,,,,,,,,,,,,,,,,,,,,,space,0.716050863,,,,,,,,,,,,,,,,,,,,,,,,,,,LearningTask,,,59.97251816,3,2015_May_27_1545,4200,s,-200,,,,,,,,,,,,,,,,,0,0,0,0,None,0,0,0,2,0,0,0,0,None,,,s,1,0.767726898,0.510826111,0.00095892,84.50307107,,,,,,,,,,,,,,,,,,,,1.21,LearningTask,,,59.97251816,3,2015_May_27_1545,4200,s,-200,,,,,,,,,,,,,,,,,0,0,0,0,None,0,0,0,2,,,,,,,,,,,,,,,,,,,,,,,,,,,,,,,,,,LearningTask,,,59.97251816,3,2015_May_27_1545,4-200,a,-200,,,,,,,,,,,,,,,,,0,0,0,0,None,0,1,1,3,0,0,0,0,None,,,w,0,0.533960104,0.509538174,0.000949144,87.22170806,2.71863699,,,,,,,,,,,,,,,,,,,0.53,LearningTask,,,59.97251816,3,2015_May_27_1545,4-200,a,-200,,,,,,,,,,,,,,,,,0,0,0,0,None,0,1,1,3,1,0,1,0,None,,,a,1,0.250664949,0.516558886,0.001041889,89.49070811,2.269000053,,,,,,,,,,,,,,,,,,,0.69,LearningTask,,,59.97251816,3,2015_May_27_1545,4-200,a,-200,,,,,,,,,,,,,,,,,0,0,0,0,None,0,1,1,3,,,,,,,,,,,,,,,,,,,,,,,,,,,,,,,,,,LearningTask,,,59.97251816,3,2015_May_27_1545,4200,s,-200,,,,,,,,,,,,,,,,,0,0,0,0,None,0,2,2,2,0,0,0,0,None,,,None,0,,0.500570059,0.001034975,92.67603016,3.185322046,,,,,,,,,,,,,,,,,,,2.17,LearningTask,,,59.97251816,3,2015_May_27_1545,4200,s,-200,,,,,,,,,,,,,,,,,0,0,0,0,None,0,2,2,2,1,0,1,0,None,,,w,0,0.21735096,0.516551971,0.000970125,94.91131306,2.235282898,,,,,,,,,,,,,,,,,,,1.9,LearningTask,,,59.97251816,3,2015_May_27_1545,4200,s,-200,,,,,,,,,,,,,,,,,0,0,0,0,None,0,2,2,2,2,0,2,0,None,,,w,0,0.350821972,0.516062975,0.000957012,97.27993917,2.368626118,,,,,,,,,,,,,,,,,,,1.99,LearningTask,,,59.97251816,3,2015_May_27_1545,4200,s,-200,,,,,,,,,,,,,,,,,0,0,0,0,None,0,2,2,2,3,0,3,0,None,,,w,0,0.184256792,0.516309023,0.001216173,99.48168612,2.201746941,,,,,,,,,,,,,,,,,,,2.16,LearningTask,,,59.97251816,3,2015_May_27_1545,4200,s,-200,,,,,,,,,,,,,,,,,0,0,0,0,None,0,2,2,2,4,0,4,0,None,,,w,0,0.334192991,0.516211033,0.001042128,101.8339932,2.352307081,,,,,,,,,,,,,,,,,,,2.2,LearningTask,,,59.97251816,3,2015_May_27_1545,4200,s,-200,,,,,,,,,,,,,,,,,0,0,0,0,None,0,2,2,2,,,,,,,,,,,,,,,,,,,,,,,,,,,,,,,,,,LearningTask,,,59.97251816,3,2015_May_27_1545,4200,w,200,,,,,,,,,,,,,,,,,0,0,0,0,None,0,3,3,0,0,0,0,0,None,,,s,0,0.667714834,0.504004955,0.000957012,104.7030051,2.869011879,,,,,,,,,,,,,,,,,,,1.07,LearningTask,,,59.97251816,3,2015_May_27_1545,4200,w,200,,,,,,,,,,,,,,,,,0,0,0,0,None,0,3,3,0,1,0,1,0,None,,,s,0,0.267205954,0.516113043,0.001144886,106.9879441,2.284939051,,,,,,,,,,,,,,,,,,,0.95,LearningTask,,,59.97251816,3,2015_May_27_1545,4200,w,200,,,,,,,,,,,,,,,,,0,0,0,0,None,0,3,3,0,2,0,2,0,None,,,a,0,0.250640869,0.51635313,0.000964165,109.2564161,2.268471956,,,,,,,,,,,,,,,,,,,0.75,LearningTask,,,59.97251816,3,2015_May_27_1545,4200,w,200,,,,,,,,,,,,,,,,,0,0,0,0,None,0,3,3,0,3,0,3,0,None,,,q,0,0.117399216,0.516381979,0.000987053,111.3913012,2.134885073,,,,,,,,,,,,,,,,,,,1.23,LearningTask,,,59.97251816,3,2015_May_27_1545,4200,w,200,,,,,,,,,,,,,,,,,0,0,0,0,None,0,3,3,0,4,0,4,0,None,,,s,0,0.334372044,0.516299009,0.001122952,113.7432251,2.351923943,,,,,,,,,,,,,,,,,,,0.98,LearningTask,,,59.97251816,3,2015_May_27_1545,4200,w,200,,,,,,,,,,,,,,,,,0,0,0,0,None,0,3,3,0,,,,,,,,,,,,,,,,,,,,,,,,,,,,,,,,,,LearningTask,,,59.97251816,3,2015_May_27_1545,4-200,q,200,,,,,,,,,,,,,,,,,0,0,0,0,None,1,0,4,1,0,0,0,0,None,,,q,1,0.517652988,0.500617981,0.00109601,116.461962,2.718736887,,,,,,,,,,,,,,,,,,,4.08,LearningTask,,,59.97251816,3,2015_May_27_1545,4-200,q,200,,,,,,,,,,,,,,,,,0,0,0,0,None,1,0,4,1,,,,,,,,,,,,,,,,,,,,,,,,,,,,,,,,,,LearningTask,,,59.97251816,3,2015_May_27_1545,4200,w,200,,,,,,,,,,,,,,,,,0,0,0,0,None,1,1,5,0,0,0,0,0,None,,,None,0,,0.510085821,0.001052856,119.69786,3.235898018,,,,,,,,,,,,,,,,,,,3.95,LearningTask,,,59.97251816,3,2015_May_27_1545,4200,w,200,,,,,,,,,,,,,,,,,0,0,0,0,None,1,1,5,0,1,0,1,0,None,,,w,1,0.150700092,0.516243935,0.00105691,121.8664711,2.168611049,,,,,,,,,,,,,,,,,,,4.02,LearningTask,,,59.97251816,3,2015_May_27_1545,4200,w,200,,,,,,,,,,,,,,,,,0,0,0,0,None,1,1,5,0,,,,,,,,,,,,,,,,,,,,,,,,,,,,,,,,,,LearningTask,,,59.97251816,3,2015_May_27_1545,4-200,q,200,,,,,,,,,,,,,,,,,0,0,0,0,None,1,2,6,1,0,0,0,0,None,,,q,1,0.400846004,0.514564037,0.000974178,124.5017872,2.635316134,,,,,,,,,,,,,,,,,,,0.67,LearningTask,,,59.97251816,3,2015_May_27_1545,4-200,q,200,,,,,,,,,,,,,,,,,0,0,0,0,None,1,2,6,1,,,,,,,,,,,,,,,,,,,,,,,,,,,,,,,,,,LearningTask,,,59.97251816,3,2015_May_27_1545,4200,w,200,,,,,,,,,,,,,,,,,0,0,0,0,None,1,3,7,0,0,0,0,0,None,,,w,1,0.367429972,0.514947176,0.000892162,127.1209931,2.619205951,,,,,,,,,,,,,,,,,,,0.81,LearningTask,,,59.97251816,3,2015_May_27_1545,4200,w,200,,,,,,,,,,,,,,,,,0,0,0,0,None,1,3,7,0,,,,,,,,,,,,,,,,,,,,,,,,,,,,,,,,,,LearningTask,,,59.97251816,3,2015_May_27_1545,4-200,a,-200,,,,,,,,,,,,,,,,,0,0,0,0,None,2,0,8,3,0,0,0,0,None,,,a,1,0.367680073,0.503752947,0.000965834,129.7229512,2.601958037,,,,,,,,,,,,,,,,,,,0.67,LearningTask,,,59.97251816,3,2015_May_27_1545,4-200,a,-200,,,,,,,,,,,,,,,,,0,0,0,0,None,2,0,8,3,,,,,,,,,,,,,,,,,,,,,,,,,,,,,,,,,,LearningTask,,,59.97251816,3,2015_May_27_1545,4