xPos,corrAns,yPos,corrGoResp,yPosGoStim,xPosGoStim,pracTrials.thisRepN,pracTrials.thisTrialN,pracTrials.thisN,pracTrials.thisIndex,pracStopTrials.thisRepN,pracStopTrials.thisTrialN,pracStopTrials.thisN,pracStopTrials.thisIndex,Blocks.thisRepN,Blocks.thisTrialN,Blocks.thisN,Blocks.thisIndex,trials.thisRepN,trials.thisTrialN,trials.thisN,trials.thisIndex,ReDoLoopMain.thisRepN,ReDoLoopMain.thisTrialN,ReDoLoopMain.thisN,ReDoLoopMain.thisIndex,ReDoLoopMain.thisTrial,StopBlocks.thisRepN,StopBlocks.thisTrialN,StopBlocks.thisN,StopBlocks.thisIndex,StopTrials.thisRepN,StopTrials.thisTrialN,StopTrials.thisN,StopTrials.thisIndex,auctionBlocks.thisRepN,auctionBlocks.thisTrialN,auctionBlocks.thisN,auctionBlocks.thisIndex,auctionTrials.thisRepN,auctionTrials.thisTrialN,auctionTrials.thisN,auctionTrials.thisIndex,learningTrialList,learningPracTrialList,stopTrialList,stopPracTrialList,auctionTrialList,ok1.keys,ok1.rt,key_resp_3.keys,key_resp_3.rt,resp.keys,resp.corr,resp.rt,feedbackResp.keys,feedbackResp.corr,currentReward,firstComputedRewardOutput,firstLearningStimOnset,firstLearningFixOnset,firstPresentationRT,firstPresentationAcc,firstPresentationResp,firstEndTrialTimeStamp,feedbackResp.rt,secondComputedRewardOutput,secondLearningStimOnset,secondLearningFixOnset,secondPresentationRT,secondPresentationAcc,secondPresentationResp,secondEndTrialTimeStamp,key_resp_7.keys,key_resp_7.rt,StartTrialTimeStamp,beginningSSD,trialType,goStim,stimType,stopStimValue,goResp.keys,goResp.corr,goResp.rt,key_resp_9.keys,key_resp_9.corr,fixStopOnset,goStimOnset,EndingSSD,EndTrialTimeStamp,stopSignalOnset,key_resp_4.keys,key_resp_4.rt,auctionResponse.keys,auctionResponse.rt,auctionStimDuration,auctionStim,auctionAmounts,auctionStimValue,key_resp_5.keys,key_resp_5.rt,chosenReward1,chosenReward2,chosenReward3,chosenReward4,chosenReward5,shuffledRewardList,key_resp_6.keys,key_resp_6.rt,date,frameRate,expName,session,participant,
,,,,,,,,,,,,,,,,,,,,,,,,,,,,,,,,,,,,,,,,,,,"[{'reward': 0.5, 'condition': 'go', 'fileName': 'invertedtriangleblue.gif'}, {'reward': 2.0, 'condition': 'go', 'fileName': 'diamondorange.gif'}, {'reward': 1.0, 'condition': 'stop', 'fileName': 'trianglegreen.gif'}, {'reward': 4.0, 'condition': 'go', 'fileName': 'circlecyan.gif'}, {'reward': 4.0, 'condition': 'go', 'fileName': 'circlecyan.gif'}, {'reward': 2.0, 'condition': 'stop', 'fileName': 'linewhite.gif'}, {'reward': 1.0, 'condition': 'go', 'fileName': 'squaregray.gif'}, {'reward': 4.0, 'condition': 'go', 'fileName': 'circlecyan.gif'}, {'reward': 1.0, 'condition': 'stop', 'fileName': 'trianglegreen.gif'}, {'reward': 1.0, 'condition': 'go', 'fileName': 'squaregray.gif'}, {'reward': 2.0, 'condition': 'stop', 'fileName': 'linewhite.gif'}, {'reward': 0.5, 'condition': 'stop', 'fileName': 'hexagonmagenta.gif'}, {'reward': 4.0, 'condition': 'stop', 'fileName': 'crossyellow.gif'}, {'reward': 1.0, 'condition': 'go', 'fileName': 'squaregray.gif'}, {'reward': 0.5, 'condition': 'stop', 'fileName': 'hexagonmagenta.gif'}, {'reward': 1.0, 'condition': 'stop', 'fileName': 'trianglegreen.gif'}, {'reward': 0.5, 'condition': 'go', 'fileName': 'invertedtriangleblue.gif'}, {'reward': 0.5, 'condition': 'stop', 'fileName': 'hexagonmagenta.gif'}, {'reward': 0.5, 'condition': 'stop', 'fileName': 'hexagonmagenta.gif'}, {'reward': 2.0, 'condition': 'stop', 'fileName': 'linewhite.gif'}, {'reward': 1.0, 'condition': 'go', 'fileName': 'squaregray.gif'}, {'reward': 1.0, 'condition': 'go', 'fileName': 'squaregray.gif'}, {'reward': 4.0, 'condition': 'go', 'fileName': 'circlecyan.gif'}, {'reward': 0.5, 'condition': 'go', 'fileName': 'invertedtriangleblue.gif'}, {'reward': 4.0, 'condition': 'go', 'fileName': 'circlecyan.gif'}, {'reward': 2.0, 'condition': 'stop', 'fileName': 'linewhite.gif'}, {'reward': 1.0, 'condition': 'go', 'fileName': 'squaregray.gif'}, {'reward': 0.5, 'condition': 'go', 'fileName': 'invertedtriangleblue.gif'}, {'reward': 0.5, 'condition': 'stop', 'fileName': 'hexagonmagenta.gif'}, {'reward': 2.0, 'condition': 'stop', 'fileName': 'linewhite.gif'}, {'reward': 2.0, 'condition': 'go', 'fileName': 'diamondorange.gif'}, {'reward': 2.0, 'condition': 'stop', 'fileName': 'linewhite.gif'}, {'reward': 0.5, 'condition': 'go', 'fileName': 'invertedtriangleblue.gif'}, {'reward': 4.0, 'condition': 'stop', 'fileName': 'crossyellow.gif'}, {'reward': 0.5, 'condition': 'go', 'fileName': 'invertedtriangleblue.gif'}, {'reward': 2.0, 'condition': 'stop', 'fileName': 'linewhite.gif'}, {'reward': 4.0, 'condition': 'stop', 'fileName': 'crossyellow.gif'}, {'reward': 0.5, 'condition': 'stop', 'fileName': 'hexagonmagenta.gif'}, {'reward': 1.0, 'condition': 'stop', 'fileName': 'trianglegreen.gif'}, {'reward': 0.5, 'condition': 'go', 'fileName': 'invertedtriangleblue.gif'}, {'reward': 2.0, 'condition': 'go', 'fileName': 'diamondorange.gif'}, {'reward': 2.0, 'condition': 'go', 'fileName': 'diamondorange.gif'}, {'reward': 1.0, 'condition': 'go', 'fileName': 'squaregray.gif'}, {'reward': 4.0, 'condition': 'stop', 'fileName': 'crossyellow.gif'}, {'reward': 1.0, 'condition': 'go', 'fileName': 'squaregray.gif'}, {'reward': 2.0, 'condition': 'go', 'fileName': 'diamondorange.gif'}, {'reward': 0.5, 'condition': 'stop', 'fileName': 'hexagonmagenta.gif'}, {'reward': 2.0, 'condition': 'stop', 'fileName': 'linewhite.gif'}, {'reward': 2.0, 'condition': 'stop', 'fileName': 'linewhite.gif'}, {'reward': 1.0, 'condition': 'go', 'fileName': 'squaregray.gif'}, {'reward': 2.0, 'condition': 'stop', 'fileName': 'linewhite.gif'}, {'reward': 4.0, 'condition': 'stop', 'fileName': 'crossyellow.gif'}, {'reward': 4.0, 'condition': 'go', 'fileName': 'circlecyan.gif'}, {'reward': 4.0, 'condition': 'stop', 'fileName': 'crossyellow.gif'}, {'reward': 1.0, 'condition': 'go', 'fileName': 'squaregray.gif'}, {'reward': 2.0, 'condition': 'go', 'fileName': 'diamondorange.gif'}, {'reward': 4.0, 'condition': 'go', 'fileName': 'circlecyan.gif'}, {'reward': 4.0, 'condition': 'go', 'fileName': 'circlecyan.gif'}, {'reward': 4.0, 'condition': 'go', 'fileName': 'circlecyan.gif'}, {'reward': 4.0, 'condition': 'go', 'fileName': 'circlecyan.gif'}, {'reward': 1.0, 'condition': 'stop', 'fileName': 'trianglegreen.gif'}, {'reward': 2.0, 'condition': 'go', 'fileName': 'diamondorange.gif'}, {'reward': 2.0, 'condition': 'go', 'fileName': 'diamondorange.gif'}, {'reward': 1.0, 'condition': 'stop', 'fileName': 'trianglegreen.gif'}, {'reward': 2.0, 'condition': 'go', 'fileName': 'diamondorange.gif'}, {'reward': 1.0, 'condition': 'go', 'fileName': 'squaregray.gif'}, {'reward': 1.0, 'condition': 'go', 'fileName': 'squaregray.gif'}, {'reward': 0.5, 'condition': 'stop', 'fileName': 'hexagonmagenta.gif'}, {'reward': 2.0, 'condition': 'go', 'fileName': 'diamondorange.gif'}, {'reward': 4.0, 'condition': 'go', 'fileName': 'circlecyan.gif'}, {'reward': 0.5, 'condition': 'go', 'fileName': 'invertedtriangleblue.gif'}, {'reward': 0.5, 'condition': 'stop', 'fileName': 'hexagonmagenta.gif'}, {'reward': 0.5, 'condition': 'stop', 'fileName': 'hexagonmagenta.gif'}, {'reward': 4.0, 'condition': 'stop', 'fileName': 'crossyellow.gif'}, {'reward': 0.5, 'condition': 'go', 'fileName': 'invertedtriangleblue.gif'}, {'reward': 4.0, 'condition': 'go', 'fileName': 'circlecyan.gif'}, {'reward': 0.5, 'condition': 'stop', 'fileName': 'hexagonmagenta.gif'}, {'reward': 4.0, 'condition': 'go', 'fileName': 'circlecyan.gif'}, {'reward': 4.0, 'condition': 'go', 'fileName': 'circlecyan.gif'}, {'reward': 4.0, 'condition': 'stop', 'fileName': 'crossyellow.gif'}, {'reward': 2.0, 'condition': 'stop', 'fileName': 'linewhite.gif'}, {'reward': 2.0, 'condition': 'stop', 'fileName': 'linewhite.gif'}, {'reward': 1.0, 'condition': 'stop', 'fileName': 'trianglegreen.gif'}, {'reward': 1.0, 'condition': 'stop', 'fileName': 'trianglegreen.gif'}, {'reward': 0.5, 'condition': 'stop', 'fileName': 'hexagonmagenta.gif'}, {'reward': 0.5, 'condition': 'go', 'fileName': 'invertedtriangleblue.gif'}, {'reward': 0.5, 'condition': 'stop', 'fileName': 'hexagonmagenta.gif'}, {'reward': 2.0, 'condition': 'stop', 'fileName': 'linewhite.gif'}, {'reward': 0.5, 'condition': 'stop', 'fileName': 'hexagonmagenta.gif'}, {'reward': 4.0, 'condition': 'stop', 'fileName': 'crossyellow.gif'}, {'reward': 1.0, 'condition': 'stop', 'fileName': 'trianglegreen.gif'}, {'reward': 2.0, 'condition': 'go', 'fileName': 'diamondorange.gif'}, {'reward': 1.0, 'condition': 'stop', 'fileName': 'trianglegreen.gif'}, {'reward': 2.0, 'condition': 'go', 'fileName': 'diamondorange.gif'}, {'reward': 1.0, 'condition': 'go', 'fileName': 'squaregray.gif'}, {'reward': 4.0, 'condition': 'stop', 'fileName': 'crossyellow.gif'}, {'reward': 4.0, 'condition': 'go', 'fileName': 'circlecyan.gif'}, {'reward': 0.5, 'condition': 'go', 'fileName': 'invertedtriangleblue.gif'}, {'reward': 0.5, 'condition': 'stop', 'fileName': 'hexagonmagenta.gif'}, {'reward': 1.0, 'condition': 'stop', 'fileName': 'trianglegreen.gif'}, {'reward': 4.0, 'condition': 'stop', 'fileName': 'crossyellow.gif'}, {'reward': 2.0, 'condition': 'stop', 'fileName': 'linewhite.gif'}, {'reward': 2.0, 'condition': 'stop', 'fileName': 'linewhite.gif'}, {'reward': 1.0, 'condition': 'stop', 'fileName': 'trianglegreen.gif'}, {'reward': 4.0, 'condition': 'go', 'fileName': 'circlecyan.gif'}, {'reward': 0.5, 'condition': 'stop', 'fileName': 'hexagonmagenta.gif'}, {'reward': 1.0, 'condition': 'stop', 'fileName': 'trianglegreen.gif'}, {'reward': 0.5, 'condition': 'go', 'fileName': 'invertedtriangleblue.gif'}, {'reward': 4.0, 'condition': 'go', 'fileName': 'circlecyan.gif'}, {'reward': 2.0, 'condition': 'stop', 'fileName': 'linewhite.gif'}, {'reward': 1.0, 'condition': 'go', 'fileName': 'squaregray.gif'}, {'reward': 1.0, 'condition': 'stop', 'fileName': 'trianglegreen.gif'}, {'reward': 1.0, 'condition': 'stop', 'fileName': 'trianglegreen.gif'}, {'reward': 0.5, 'condition': 'stop', 'fileName': 'hexagonmagenta.gif'}, {'reward': 4.0, 'condition': 'stop', 'fileName': 'crossyellow.gif'}, {'reward': 0.5, 'condition': 'stop', 'fileName': 'hexagonmagenta.gif'}, {'reward': 4.0, 'condition': 'stop', 'fileName': 'crossyellow.gif'}, {'reward': 0.5, 'condition': 'go', 'fileName': 'invertedtriangleblue.gif'}, {'reward': 1.0, 'condition': 'stop', 'fileName': 'trianglegreen.gif'}, {'reward': 2.0, 'condition': 'go', 'fileName': 'diamondorange.gif'}, {'reward': 4.0, 'condition': 'go', 'fileName': 'circlecyan.gif'}, {'reward': 2.0, 'condition': 'go', 'fileName': 'diamondorange.gif'}, {'reward': 4.0, 'condition': 'go', 'fileName': 'circlecyan.gif'}, {'reward': 1.0, 'condition': 'go', 'fileName': 'squaregray.gif'}, {'reward': 0.5, 'condition': 'go', 'fileName': 'invertedtriangleblue.gif'}, {'reward': 0.5, 'condition': 'stop', 'fileName': 'hexagonmagenta.gif'}, {'reward': 1.0, 'condition': 'go', 'fileName': 'squaregray.gif'}, {'reward': 4.0, 'condition': 'go', 'fileName': 'circlecyan.gif'}, {'reward': 2.0, 'condition': 'go', 'fileName': 'diamondorange.gif'}, {'reward': 4.0, 'condition': 'go', 'fileName': 'circlecyan.gif'}, {'reward': 4.0, 'condition': 'stop', 'fileName': 'crossyellow.gif'}, {'reward': 1.0, 'condition': 'stop', 'fileName': 'trianglegreen.gif'}, {'reward': 4.0, 'condition': 'go', 'fileName': 'circlecyan.gif'}, {'reward': 2.0, 'condition': 'go', 'fileName': 'diamondorange.gif'}, {'reward': 0.5, 'condition': 'stop', 'fileName': 'hexagonmagenta.gif'}, {'reward': 1.0, 'condition': 'stop', 'fileName': 'trianglegreen.gif'}, {'reward': 1.0, 'condition': 'go', 'fileName': 'squaregray.gif'}, {'reward': 4.0, 'condition': 'go', 'fileName': 'circlecyan.gif'}, {'reward': 4.0, 'condition': 'go', 'fileName': 'circlecyan.gif'}, {'reward': 0.5, 'condition': 'go', 'fileName': 'invertedtriangleblue.gif'}, {'reward': 0.5, 'condition': 'stop', 'fileName': 'hexagonmagenta.gif'}, {'reward': 2.0, 'condition': 'go', 'fileName': 'diamondorange.gif'}, {'reward': 1.0, 'condition': 'go', 'fileName': 'squaregray.gif'}, {'reward': 0.5, 'condition': 'stop', 'fileName': 'hexagonmagenta.gif'}, {'reward': 0.5, 'condition': 'stop', 'fileName': 'hexagonmagenta.gif'}, {'reward': 4.0, 'condition': 'go', 'fileName': 'circlecyan.gif'}, {'reward': 0.5, 'condition': 'stop', 'fileName': 'hexagonmagenta.gif'}, {'reward': 0.5, 'condition': 'stop', 'fileName': 'hexagonmagenta.gif'}, {'reward': 0.5, 'condition': 'go', 'fileName': 'invertedtriangleblue.gif'}, {'reward': 4.0, 'condition': 'stop', 'fileName': 'crossyellow.gif'}, {'reward': 0.5, 'condition': 'go', 'fileName': 'invertedtriangleblue.gif'}, {'reward': 1.0, 'condition': 'go', 'fileName': 'squaregray.gif'}, {'reward': 2.0, 'condition': 'go', 'fileName': 'diamondorange.gif'}, {'reward': 4.0, 'condition': 'stop', 'fileName': 'crossyellow.gif'}, {'reward': 0.5, 'condition': 'stop', 'fileName': 'hexagonmagenta.gif'}, {'reward': 1.0, 'condition': 'go', 'fileName': 'squaregray.gif'}, {'reward': 0.5, 'condition': 'stop', 'fileName': 'hexagonmagenta.gif'}, {'reward': 2.0, 'condition': 'stop', 'fileName': 'linewhite.gif'}, {'reward': 0.5, 'condition': 'stop', 'fileName': 'hexagonmagenta.gif'}, {'reward': 4.0, 'condition': 'go', 'fileName': 'circlecyan.gif'}, {'reward': 4.0, 'condition': 'go', 'fileName': 'circlecyan.gif'}, {'reward': 1.0, 'condition': 'go', 'fileName': 'squaregray.gif'}, {'reward': 1.0, 'condition': 'go', 'fileName': 'squaregray.gif'}, {'reward': 2.0, 'condition': 'go', 'fileName': 'diamondorange.gif'}, {'reward': 1.0, 'condition': 'go', 'fileName': 'squaregray.gif'}, {'reward': 0.5, 'condition': 'stop', 'fileName': 'hexagonmagenta.gif'}, {'reward': 0.5, 'condition': 'go', 'fileName': 'invertedtriangleblue.gif'}, {'reward': 2.0, 'condition': 'go', 'fileName': 'diamondorange.gif'}, {'reward': 2.0, 'condition': 'go', 'fileName': 'diamondorange.gif'}, {'reward': 4.0, 'condition': 'go', 'fileName': 'circlecyan.gif'}, {'reward': 1.0, 'condition': 'go', 'fileName': 'squaregray.gif'}, {'reward': 1.0, 'condition': 'go', 'fileName': 'squaregray.gif'}, {'reward': 2.0, 'condition': 'stop', 'fileName': 'linewhite.gif'}, {'reward': 0.5, 'condition': 'go', 'fileName': 'invertedtriangleblue.gif'}, {'reward': 2.0, 'condition': 'go', 'fileName': 'diamondorange.gif'}, {'reward': 1.0, 'condition': 'stop', 'fileName': 'trianglegreen.gif'}, {'reward': 2.0, 'condition': 'stop', 'fileName': 'linewhite.gif'}, {'reward': 1.0, 'condition': 'stop', 'fileName': 'trianglegreen.gif'}, {'reward': 2.0, 'condition': 'stop', 'fileName': 'linewhite.gif'}, {'reward': 0.5, 'condition': 'go', 'fileName': 'invertedtriangleblue.gif'}, {'reward': 4.0, 'condition': 'go', 'fileName': 'circlecyan.gif'}, {'reward': 4.0, 'condition': 'go', 'fileName': 'circlecyan.gif'}, {'reward': 2.0, 'condition': 'stop', 'fileName': 'linewhite.gif'}, {'reward': 2.0, 'condition': 'stop', 'fileName': 'linewhite.gif'}, {'reward': 2.0, 'condition': 'stop', 'fileName': 'linewhite.gif'}, {'reward': 4.0, 'condition': 'stop', 'fileName': 'crossyellow.gif'}, {'reward': 0.5, 'condition': 'stop', 'fileName': 'hexagonmagenta.gif'}, {'reward': 4.0, 'condition': 'go', 'fileName': 'circlecyan.gif'}, {'reward': 4.0, 'condition': 'go', 'fileName': 'circlecyan.gif'}, {'reward': 1.0, 'condition': 'stop', 'fileName': 'trianglegreen.gif'}, {'reward': 4.0, 'condition': 'stop', 'fileName': 'crossyellow.gif'}, {'reward': 4.0, 'condition': 'go', 'fileName': 'circlecyan.gif'}, {'reward': 0.5, 'condition': 'go', 'fileName': 'invertedtriangleblue.gif'}, {'reward': 0.5, 'condition': 'go', 'fileName': 'invertedtriangleblue.gif'}, {'reward': 1.0, 'condition': 'stop', 'fileName': 'trianglegreen.gif'}, {'reward': 1.0, 'condition': 'stop', 'fileName': 'trianglegreen.gif'}, {'reward': 4.0, 'condition': 'go', 'fileName': 'circlecyan.gif'}, {'reward': 0.5, 'condition': 'go', 'fileName': 'invertedtriangleblue.gif'}, {'reward': 0.5, 'condition': 'stop', 'fileName': 'hexagonmagenta.gif'}, {'reward': 2.0, 'condition': 'go', 'fileName': 'diamondorange.gif'}, {'reward': 2.0, 'condition': 'go', 'fileName': 'diamondorange.gif'}, {'reward': 2.0, 'condition': 'stop', 'fileName': 'linewhite.gif'}, {'reward': 2.0, 'condition': 'go', 'fileName': 'diamondorange.gif'}, {'reward': 1.0, 'condition': 'go', 'fileName': 'squaregray.gif'}, {'reward': 2.0, 'condition': 'stop', 'fileName': 'linewhite.gif'}, {'reward': 2.0, 'condition': 'go', 'fileName': 'diamondorange.gif'}, {'reward': 1.0, 'condition': 'stop', 'fileName': 'trianglegreen.gif'}, {'reward': 0.5, 'condition': 'stop', 'fileName': 'hexagonmagenta.gif'}, {'reward': 0.5, 'condition': 'stop', 'fileName': 'hexagonmagenta.gif'}, {'reward': 0.5, 'condition': 'stop', 'fileName': 'hexagonmagenta.gif'}, {'reward': 4.0, 'condition': 'go', 'fileName': 'circlecyan.gif'}, {'reward': 1.0, 'condition': 'go', 'fileName': 'squaregray.gif'}, {'reward': 1.0, 'condition': 'go', 'fileName': 'squaregray.gif'}, {'reward': 0.5, 'condition': 'go', 'fileName': 'invertedtriangleblue.gif'}, {'reward': 2.0, 'condition': 'stop', 'fileName': 'linewhite.gif'}, {'reward': 1.0, 'condition': 'go', 'fileName': 'squaregray.gif'}, {'reward': 1.0, 'condition': 'stop', 'fileName': 'trianglegreen.gif'}, {'reward': 0.5, 'condition': 'go', 'fileName': 'invertedtriangleblue.gif'}, {'reward': 2.0, 'condition': 'go', 'fileName': 'diamondorange.gif'}, {'reward': 2.0, 'condition': 'stop', 'fileName': 'linewhite.gif'}, {'reward': 4.0, 'condition': 'stop', 'fileName': 'crossyellow.gif'}, {'reward': 0.5, 'condition': 'stop', 'fileName': 'hexagonmagenta.gif'}, {'reward': 0.5, 'condition': 'go', 'fileName': 'invertedtriangleblue.gif'}, {'reward': 4.0, 'condition': 'stop', 'fileName': 'crossyellow.gif'}, {'reward': 4.0, 'condition': 'stop', 'fileName': 'crossyellow.gif'}, {'reward': 4.0, 'condition': 'go', 'fileName': 'circlecyan.gif'}, {'reward': 2.0, 'condition': 'stop', 'fileName': 'linewhite.gif'}, {'reward': 0.5, 'condition': 'stop', 'fileName': 'hexagonmagenta.gif'}, {'reward': 0.5, 'condition': 'go', 'fileName': 'invertedtriangleblue.gif'}, {'reward': 2.0, 'condition': 'stop', 'fileName': 'linewhite.gif'}, {'reward': 2.0, 'condition': 'go', 'fileName': 'diamondorange.gif'}, {'reward': 0.5, 'condition': 'go', 'fileName': 'invertedtriangleblue.gif'}, {'reward': 4.0, 'condition': 'stop', 'fileName': 'crossyellow.gif'}, {'reward': 4.0, 'condition': 'stop', 'fileName': 'crossyellow.gif'}, {'reward': 1.0, 'condition': 'go', 'fileName': 'squaregray.gif'}, {'reward': 2.0, 'condition': 'go', 'fileName': 'diamondorange.gif'}, {'reward': 0.5, 'condition': 'go', 'fileName': 'invertedtriangleblue.gif'}, {'reward': 4.0, 'condition': 'stop', 'fileName': 'crossyellow.gif'}, {'reward': 1.0, 'condition': 'go', 'fileName': 'squaregray.gif'}, {'reward': 4.0, 'condition': 'stop', 'fileName': 'crossyellow.gif'}, {'reward': 1.0, 'condition': 'stop', 'fileName': 'trianglegreen.gif'}, {'reward': 0.5, 'condition': 'go', 'fileName': 'invertedtriangleblue.gif'}, {'reward': 1.0, 'condition': 'stop', 'fileName': 'trianglegreen.gif'}, {'reward': 1.0, 'condition': 'go', 'fileName': 'squaregray.gif'}, {'reward': 2.0, 'condition': 'stop', 'fileName': 'linewhite.gif'}, {'reward': 4.0, 'condition': 'stop', 'fileName': 'crossyellow.gif'}, {'reward': 0.5, 'condition': 'stop', 'fileName': 'hexagonmagenta.gif'}, {'reward': 1.0, 'condition': 'stop', 'fileName': 'trianglegreen.gif'}, {'reward': 1.0, 'condition': 'go', 'fileName': 'squaregray.gif'}, {'reward': 2.0, 'condition': 'stop', 'fileName': 'linewhite.gif'}, {'reward': 4.0, 'condition': 'stop', 'fileName': 'crossyellow.gif'}, {'reward': 1.0, 'condition': 'stop', 'fileName': 'trianglegreen.gif'}, {'reward': 4.0, 'condition': 'go', 'fileName': 'circlecyan.gif'}, {'reward': 4.0, 'condition': 'stop', 'fileName': 'crossyellow.gif'}, {'reward': 1.0, 'condition': 'stop', 'fileName': 'trianglegreen.gif'}, {'reward': 0.5, 'condition': 'go', 'fileName': 'invertedtriangleblue.gif'}, {'reward': 4.0, 'condition': 'go', 'fileName': 'circlecyan.gif'}, {'reward': 0.5, 'condition': 'go', 'fileName': 'invertedtriangleblue.gif'}, {'reward': 4.0, 'condition': 'stop', 'fileName': 'crossyellow.gif'}, {'reward': 2.0, 'condition': 'stop', 'fileName': 'linewhite.gif'}, {'reward': 1.0, 'condition': 'stop', 'fileName': 'trianglegreen.gif'}, {'reward': 0.5, 'condition': 'stop', 'fileName': 'hexagonmagenta.gif'}, {'reward': 1.0, 'condition': 'stop', 'fileName': 'trianglegreen.gif'}, {'reward': 2.0, 'condition': 'stop', 'fileName': 'linewhite.gif'}, {'reward': 1.0, 'condition': 'go', 'fileName': 'squaregray.gif'}, {'reward': 1.0, 'condition': 'go', 'fileName': 'squaregray.gif'}, {'reward': 2.0, 'condition': 'go', 'fileName': 'diamondorange.gif'}, {'reward': 1.0, 'condition': 'go', 'fileName': 'squaregray.gif'}, {'reward': 0.5, 'condition': 'go', 'fileName': 'invertedtriangleblue.gif'}, {'reward': 0.5, 'condition': 'go', 'fileName': 'invertedtriangleblue.gif'}, {'reward': 4.0, 'condition': 'stop', 'fileName': 'crossyellow.gif'}, {'reward': 1.0, 'condition': 'stop', 'fileName': 'trianglegreen.gif'}, {'reward': 1.0, 'condition': 'stop', 'fileName': 'trianglegreen.gif'}, {'reward': 2.0, 'condition': 'stop', 'fileName': 'linewhite.gif'}, {'reward': 0.5, 'condition': 'go', 'fileName': 'invertedtriangleblue.gif'}, {'reward': 4.0, 'condition': 'stop', 'fileName': 'crossyellow.gif'}, {'reward': 1.0, 'condition': 'stop', 'fileName': 'trianglegreen.gif'}, {'reward': 2.0, 'condition': 'stop', 'fileName': 'linewhite.gif'}, {'reward': 2.0, 'condition': 'go', 'fileName': 'diamondorange.gif'}, {'reward': 4.0, 'condition': 'stop', 'fileName': 'crossyellow.gif'}, {'reward': 4.0, 'condition': 'stop', 'fileName': 'crossyellow.gif'}, {'reward': 4.0, 'condition': 'stop', 'fileName': 'crossyellow.gif'}, {'reward': 1.0, 'condition': 'go', 'fileName': 'squaregray.gif'}, {'reward': 0.5, 'condition': 'stop', 'fileName': 'hexagonmagenta.gif'}, {'reward': 0.5, 'condition': 'go', 'fileName': 'invertedtriangleblue.gif'}, {'reward': 2.0, 'condition': 'stop', 'fileName': 'linewhite.gif'}, {'reward': 0.5, 'condition': 'go', 'fileName': 'invertedtriangleblue.gif'}, {'reward': 2.0, 'condition': 'go', 'fileName': 'diamondorange.gif'}, {'reward': 2.0, 'condition': 'stop', 'fileName': 'linewhite.gif'}, {'reward': 1.0, 'condition': 'go', 'fileName': 'squaregray.gif'}, {'reward': 4.0, 'condition': 'go', 'fileName': 'circlecyan.gif'}, {'reward': 1.0, 'condition': 'stop', 'fileName': 'trianglegreen.gif'}, {'reward': 2.0, 'condition': 'stop', 'fileName': 'linewhite.gif'}, {'reward': 4.0, 'condition': 'go', 'fileName': 'circlecyan.gif'}, {'reward': 2.0, 'condition': 'go', 'fileName': 'diamondorange.gif'}, {'reward': 2.0, 'condition': 'go', 'fileName': 'diamondorange.gif'}, {'reward': 0.5, 'condition': 'stop', 'fileName': 'hexagonmagenta.gif'}, {'reward': 4.0, 'condition': 'go', 'fileName': 'circlecyan.gif'}, {'reward': 4.0, 'condition': 'stop', 'fileName': 'crossyellow.gif'}, {'reward': 1.0, 'condition': 'stop', 'fileName': 'trianglegreen.gif'}]","[{'reward': 4.0, 'condition': 'go', 'fileName': 'circlecyan.gif'}, {'reward': 1.0, 'condition': 'stop', 'fileName': 'trianglegreen.gif'}, {'reward': 0.5, 'condition': 'go', 'fileName': 'invertedtriangleblue.gif'}, {'reward': 1.0, 'condition': 'stop', 'fileName': 'trianglegreen.gif'}, {'reward': 2.0, 'condition': 'go', 'fileName': 'diamondorange.gif'}, {'reward': 2.0, 'condition': 'go', 'fileName': 'diamondorange.gif'}, {'reward': 1.0, 'condition': 'stop', 'fileName': 'trianglegreen.gif'}, {'reward': 2.0, 'condition': 'stop', 'fileName': 'linewhite.gif'}, {'reward': 0.5, 'condition': 'stop', 'fileName': 'hexagonmagenta.gif'}, {'reward': 2.0, 'condition': 'go', 'fileName': 'diamondorange.gif'}]","[{'stopOrGo': 'go', 'reward': 0.5, 'condition': 'go', 'fileName': 'invertedtriangleblue.gif'}, {'stopOrGo': 'stop', 'reward': 1.0, 'condition': 'stop', 'fileName': 'trianglegreen.gif'}, {'stopOrGo': 'go', 'reward': 0.5, 'condition': 'go', 'fileName': 'invertedtriangleblue.gif'}, {'stopOrGo': 'go', 'reward': 0.5, 'condition': 'go', 'fileName': 'invertedtriangleblue.gif'}, {'stopOrGo': 'stop', 'reward': 2.0, 'condition': 'stop', 'fileName': 'linewhite.gif'}, {'stopOrGo': 'stop', 'reward': 1.0, 'condition': 'stop', 'fileName': 'trianglegreen.gif'}, {'stopOrGo': 'stop', 'reward': 0.5, 'condition': 'stop', 'fileName': 'hexagonmagenta.gif'}, {'stopOrGo': 'stop', 'reward': 1.0, 'condition': 'stop', 'fileName': 'trianglegreen.gif'}, {'stopOrGo': 'stop', 'reward': 4.0, 'condition': 'stop', 'fileName': 'crossyellow.gif'}, {'stopOrGo': 'go', 'reward': 1.0, 'condition': 'go', 'fileName': 'squaregray.gif'}, {'stopOrGo': 'stop', 'reward': 4.0, 'condition': 'stop', 'fileName': 'crossyellow.gif'}, {'stopOrGo': 'go', 'reward': 0.5, 'condition': 'go', 'fileName': 'invertedtriangleblue.gif'}, {'stopOrGo': 'go', 'reward': 2.0, 'condition': 'go', 'fileName': 'diamondorange.gif'}, {'stopOrGo': 'go', 'reward': 2.0, 'condition': 'go', 'fileName': 'diamondorange.gif'}, {'stopOrGo': 'stop', 'reward': 0.5, 'condition': 'stop', 'fileName': 'hexagonmagenta.gif'}, {'stopOrGo': 'go', 'reward': 2.0, 'condition': 'go', 'fileName': 'diamondorange.gif'}, {'stopOrGo': 'go', 'reward': 0.5, 'condition': 'stop', 'fileName': 'hexagonmagenta.gif'}, {'stopOrGo': 'stop', 'reward': 2.0, 'condition': 'stop', 'fileName': 'linewhite.gif'}, {'stopOrGo': 'stop', 'reward': 2.0, 'condition': 'stop', 'fileName': 'linewhite.gif'}, {'stopOrGo': 'stop', 'reward': 0.5, 'condition': 'stop', 'fileName': 'hexagonmagenta.gif'}, {'stopOrGo': 'stop', 'reward': 2.0, 'condition': 'stop', 'fileName': 'linewhite.gif'}, {'stopOrGo': 'go', 'reward': 2.0, 'condition': 'go', 'fileName': 'diamondorange.gif'}, {'stopOrGo': 'stop', 'reward': 1.0, 'condition': 'stop', 'fileName': 'trianglegreen.gif'}, {'stopOrGo': 'stop', 'reward': 0.5, 'condition': 'stop', 'fileName': 'hexagonmagenta.gif'}, {'stopOrGo': 'go', 'reward': 1.0, 'condition': 'go', 'fileName': 'squaregray.gif'}, {'stopOrGo': 'stop', 'reward': 1.0, 'condition': 'stop', 'fileName': 'trianglegreen.gif'}, {'stopOrGo': 'stop', 'reward': 4.0, 'condition': 'stop', 'fileName': 'crossyellow.gif'}, {'stopOrGo': 'go', 'reward': 0.5, 'condition': 'go', 'fileName': 'invertedtriangleblue.gif'}, {'stopOrGo': 'go', 'reward': 4.0, 'condition': 'go', 'fileName': 'circlecyan.gif'}, {'stopOrGo': 'go', 'reward': 1.0, 'condition': 'go', 'fileName': 'squaregray.gif'}, {'stopOrGo': 'go', 'reward': 1.0, 'condition': 'go', 'fileName': 'squaregray.gif'}, {'stopOrGo': 'stop', 'reward': 0.5, 'condition': 'stop', 'fileName': 'hexagonmagenta.gif'}, {'stopOrGo': 'go', 'reward': 1.0, 'condition': 'go', 'fileName': 'squaregray.gif'}, {'stopOrGo': 'go', 'reward': 0.5, 'condition': 'go', 'fileName': 'invertedtriangleblue.gif'}, {'stopOrGo': 'stop', 'reward': 1.0, 'condition': 'stop', 'fileName': 'trianglegreen.gif'}, {'stopOrGo': 'go', 'reward': 1.0, 'condition': 'stop', 'fileName': 'trianglegreen.gif'}, {'stopOrGo': 'stop', 'reward': 4.0, 'condition': 'stop', 'fileName': 'crossyellow.gif'}, {'stopOrGo': 'go', 'reward': 1.0, 'condition': 'go', 'fileName': 'squaregray.gif'}, {'stopOrGo': 'go', 'reward': 2.0, 'condition': 'go', 'fileName': 'diamondorange.gif'}, {'stopOrGo': 'go', 'reward': 1.0, 'condition': 'go', 'fileName': 'squaregray.gif'}, {'stopOrGo': 'go', 'reward': 0.5, 'condition': 'go', 'fileName': 'invertedtriangleblue.gif'}, {'stopOrGo': 'go', 'reward': 1.0, 'condition': 'go', 'fileName': 'squaregray.gif'}, {'stopOrGo': 'go', 'reward': 4.0, 'condition': 'stop', 'fileName': 'crossyellow.gif'}, {'stopOrGo': 'go', 'reward': 4.0, 'condition': 'go', 'fileName': 'circlecyan.gif'}, {'stopOrGo': 'go', 'reward': 4.0, 'condition': 'go', 'fileName': 'circlecyan.gif'}, {'stopOrGo': 'stop', 'reward': 2.0, 'condition': 'stop', 'fileName': 'linewhite.gif'}, {'stopOrGo': 'go', 'reward': 4.0, 'condition': 'go', 'fileName': 'circlecyan.gif'}, {'stopOrGo': 'go', 'reward': 0.5, 'condition': 'go', 'fileName': 'invertedtriangleblue.gif'}, {'stopOrGo': 'go', 'reward': 0.5, 'condition': 'go', 'fileName': 'invertedtriangleblue.gif'}, {'stopOrGo': 'go', 'reward': 4.0, 'condition': 'go', 'fileName': 'circlecyan.gif'}, {'stopOrGo': 'go', 'reward': 0.5, 'condition': 'go', 'fileName': 'invertedtriangleblue.gif'}, {'stopOrGo': 'go', 'reward': 1.0, 'condition': 'go', 'fileName': 'squaregray.gif'}, {'stopOrGo': 'go', 'reward': 1.0, 'condition': 'go', 'fileName': 'squaregray.gif'}, {'stopOrGo': 'go', 'reward': 1.0, 'condition': 'stop', 'fileName': 'trianglegreen.gif'}, {'stopOrGo': 'go', 'reward': 1.0, 'condition': 'stop', 'fileName': 'trianglegreen.gif'}, {'stopOrGo': 'go', 'reward': 2.0, 'condition': 'go', 'fileName': 'diamondorange.gif'}, {'stopOrGo': 'stop', 'reward': 1.0, 'condition': 'stop', 'fileName': 'trianglegreen.gif'}, {'stopOrGo': 'go', 'reward': 2.0, 'condition': 'go', 'fileName': 'diamondorange.gif'}, {'stopOrGo': 'stop', 'reward': 2.0, 'condition': 'stop', 'fileName': 'linewhite.gif'}, {'stopOrGo': 'stop', 'reward': 1.0, 'condition': 'stop', 'fileName': 'trianglegreen.gif'}, {'stopOrGo': 'go', 'reward': 0.5, 'condition': 'stop', 'fileName': 'hexagonmagenta.gif'}, {'stopOrGo': 'stop', 'reward': 0.5, 'condition': 'stop', 'fileName': 'hexagonmagenta.gif'}, {'stopOrGo': 'stop', 'reward': 2.0, 'condition': 'stop', 'fileName': 'linewhite.gif'}, {'stopOrGo': 'go', 'reward': 4.0, 'condition': 'go', 'fileName': 'circlecyan.gif'}, {'stopOrGo': 'stop', 'reward': 0.5, 'condition': 'stop', 'fileName': 'hexagonmagenta.gif'}, {'stopOrGo': 'stop', 'reward': 0.5, 'condition': 'stop', 'fileName': 'hexagonmagenta.gif'}, {'stopOrGo': 'stop', 'reward': 0.5, 'condition': 'stop', 'fileName': 'hexagonmagenta.gif'}, {'stopOrGo': 'stop', 'reward': 1.0, 'condition': 'stop', 'fileName': 'trianglegreen.gif'}, {'stopOrGo': 'go', 'reward': 4.0, 'condition': 'go', 'fileName': 'circlecyan.gif'}, {'stopOrGo': 'go', 'reward': 1.0, 'condition': 'go', 'fileName': 'squaregray.gif'}, {'stopOrGo': 'stop', 'reward': 0.5, 'condition': 'stop', 'fileName': 'hexagonmagenta.gif'}, {'stopOrGo': 'stop', 'reward': 1.0, 'condition': 'stop', 'fileName': 'trianglegreen.gif'}, {'stopOrGo': 'go', 'reward': 0.5, 'condition': 'go', 'fileName': 'invertedtriangleblue.gif'}, {'stopOrGo': 'go', 'reward': 4.0, 'condition': 'go', 'fileName': 'circlecyan.gif'}, {'stopOrGo': 'stop', 'reward': 4.0, 'condition': 'stop', 'fileName': 'crossyellow.gif'}, {'stopOrGo': 'go', 'reward': 1.0, 'condition': 'go', 'fileName': 'squaregray.gif'}, {'stopOrGo': 'go', 'reward': 4.0, 'condition': 'go', 'fileName': 'circlecyan.gif'}, {'stopOrGo': 'go', 'reward': 1.0, 'condition': 'go', 'fileName': 'squaregray.gif'}, {'stopOrGo': 'go', 'reward': 0.5, 'condition': 'go', 'fileName': 'invertedtriangleblue.gif'}, {'stopOrGo': 'stop', 'reward': 4.0, 'condition': 'stop', 'fileName': 'crossyellow.gif'}, {'stopOrGo': 'stop', 'reward': 2.0, 'condition': 'stop', 'fileName': 'linewhite.gif'}, {'stopOrGo': 'stop', 'reward': 4.0, 'condition': 'stop', 'fileName': 'crossyellow.gif'}, {'stopOrGo': 'stop', 'reward': 2.0, 'condition': 'stop', 'fileName': 'linewhite.gif'}, {'stopOrGo': 'go', 'reward': 1.0, 'condition': 'go', 'fileName': 'squaregray.gif'}, {'stopOrGo': 'stop', 'reward': 1.0, 'condition': 'stop', 'fileName': 'trianglegreen.gif'}, {'stopOrGo': 'stop', 'reward': 2.0, 'condition': 'stop', 'fileName': 'linewhite.gif'}, {'stopOrGo': 'go', 'reward': 4.0, 'condition': 'stop', 'fileName': 'crossyellow.gif'}, {'stopOrGo': 'go', 'reward': 2.0, 'condition': 'go', 'fileName': 'diamondorange.gif'}, {'stopOrGo': 'go', 'reward': 0.5, 'condition': 'stop', 'fileName': 'hexagonmagenta.gif'}, {'stopOrGo': 'go', 'reward': 1.0, 'condition': 'stop', 'fileName': 'trianglegreen.gif'}, {'stopOrGo': 'go', 'reward': 2.0, 'condition': 'stop', 'fileName': 'linewhite.gif'}, {'stopOrGo': 'stop', 'reward': 2.0, 'condition': 'stop', 'fileName': 'linewhite.gif'}, {'stopOrGo': 'go', 'reward': 2.0, 'condition': 'go', 'fileName': 'diamondorange.gif'}, {'stopOrGo': 'go', 'reward': 4.0, 'condition': 'stop', 'fileName': 'crossyellow.gif'}, {'stopOrGo': 'stop', 'reward': 0.5, 'condition': 'stop', 'fileName': 'hexagonmagenta.gif'}, {'stopOrGo': 'go', 'reward': 0.5, 'condition': 'go', 'fileName': 'invertedtriangleblue.gif'}, {'stopOrGo': 'go', 'reward': 2.0, 'condition': 'go', 'fileName': 'diamondorange.gif'}, {'stopOrGo': 'go', 'reward': 2.0, 'condition': 'go', 'fileName': 'diamondorange.gif'}, {'stopOrGo': 'go', 'reward': 1.0, 'condition': 'go', 'fileName': 'squaregray.gif'}, {'stopOrGo': 'stop', 'reward': 0.5, 'condition': 'stop', 'fileName': 'hexagonmagenta.gif'}, {'stopOrGo': 'go', 'reward': 2.0, 'condition': 'stop', 'fileName': 'linewhite.gif'}, {'stopOrGo': 'stop', 'reward': 4.0, 'condition': 'stop', 'fileName': 'crossyellow.gif'}, {'stopOrGo': 'go', 'reward': 0.5, 'condition': 'go', 'fileName': 'invertedtriangleblue.gif'}, {'stopOrGo': 'go', 'reward': 1.0, 'condition': 'go', 'fileName': 'squaregray.gif'}, {'stopOrGo': 'go', 'reward': 1.0, 'condition': 'stop', 'fileName': 'trianglegreen.gif'}, {'stopOrGo': 'go', 'reward': 2.0, 'condition': 'stop', 'fileName': 'linewhite.gif'}, {'stopOrGo': 'go', 'reward': 1.0, 'condition': 'go', 'fileName': 'squaregray.gif'}, {'stopOrGo': 'stop', 'reward': 1.0, 'condition': 'stop', 'fileName': 'trianglegreen.gif'}, {'stopOrGo': 'stop', 'reward': 1.0, 'condition': 'stop', 'fileName': 'trianglegreen.gif'}, {'stopOrGo': 'stop', 'reward': 0.5, 'condition': 'stop', 'fileName': 'hexagonmagenta.gif'}, {'stopOrGo': 'stop', 'reward': 0.5, 'condition': 'stop', 'fileName': 'hexagonmagenta.gif'}, {'stopOrGo': 'go', 'reward': 4.0, 'condition': 'go', 'fileName': 'circlecyan.gif'}, {'stopOrGo': 'go', 'reward': 4.0, 'condition': 'go', 'fileName': 'circlecyan.gif'}, {'stopOrGo': 'go', 'reward': 1.0, 'condition': 'stop', 'fileName': 'trianglegreen.gif'}, {'stopOrGo': 'stop', 'reward': 0.5, 'condition': 'stop', 'fileName': 'hexagonmagenta.gif'}, {'stopOrGo': 'go', 'reward': 4.0, 'condition': 'stop', 'fileName': 'crossyellow.gif'}, {'stopOrGo': 'stop', 'reward': 1.0, 'condition': 'stop', 'fileName': 'trianglegreen.gif'}, {'stopOrGo': 'go', 'reward': 4.0, 'condition': 'go', 'fileName': 'circlecyan.gif'}, {'stopOrGo': 'stop', 'reward': 2.0, 'condition': 'stop', 'fileName': 'linewhite.gif'}, {'stopOrGo': 'stop', 'reward': 4.0, 'condition': 'stop', 'fileName': 'crossyellow.gif'}, {'stopOrGo': 'go', 'reward': 2.0, 'condition': 'stop', 'fileName': 'linewhite.gif'}, {'stopOrGo': 'stop', 'reward': 4.0, 'condition': 'stop', 'fileName': 'crossyellow.gif'}, {'stopOrGo': 'stop', 'reward': 0.5, 'condition': 'stop', 'fileName': 'hexagonmagenta.gif'}, {'stopOrGo': 'go', 'reward': 1.0, 'condition': 'go', 'fileName': 'squaregray.gif'}, {'stopOrGo': 'go', 'reward': 4.0, 'condition': 'go', 'fileName': 'circlecyan.gif'}, {'stopOrGo': 'stop', 'reward': 4.0, 'condition': 'stop', 'fileName': 'crossyellow.gif'}, {'stopOrGo': 'go', 'reward': 4.0, 'condition': 'stop', 'fileName': 'crossyellow.gif'}, {'stopOrGo': 'stop', 'reward': 4.0, 'condition': 'stop', 'fileName': 'crossyellow.gif'}, {'stopOrGo': 'stop', 'reward': 0.5, 'condition': 'stop', 'fileName': 'hexagonmagenta.gif'}, {'stopOrGo': 'stop', 'reward': 0.5, 'condition': 'stop', 'fileName': 'hexagonmagenta.gif'}, {'stopOrGo': 'go', 'reward': 4.0, 'condition': 'go', 'fileName': 'circlecyan.gif'}, {'stopOrGo': 'go', 'reward': 4.0, 'condition': 'go', 'fileName': 'circlecyan.gif'}, {'stopOrGo': 'stop', 'reward': 1.0, 'condition': 'stop', 'fileName': 'trianglegreen.gif'}, {'stopOrGo': 'go', 'reward': 0.5, 'condition': 'stop', 'fileName': 'hexagonmagenta.gif'}, {'stopOrGo': 'go', 'reward': 1.0, 'condition': 'go', 'fileName': 'squaregray.gif'}, {'stopOrGo': 'go', 'reward': 0.5, 'condition': 'stop', 'fileName': 'hexagonmagenta.gif'}, {'stopOrGo': 'go', 'reward': 0.5, 'condition': 'go', 'fileName': 'invertedtriangleblue.gif'}, {'stopOrGo': 'go', 'reward': 2.0, 'condition': 'stop', 'fileName': 'linewhite.gif'}, {'stopOrGo': 'stop', 'reward': 2.0, 'condition': 'stop', 'fileName': 'linewhite.gif'}, {'stopOrGo': 'go', 'reward': 2.0, 'condition': 'go', 'fileName': 'diamondorange.gif'}, {'stopOrGo': 'go', 'reward': 2.0, 'condition': 'go', 'fileName': 'diamondorange.gif'}, {'stopOrGo': 'go', 'reward': 0.5, 'condition': 'go', 'fileName': 'invertedtriangleblue.gif'}, {'stopOrGo': 'stop', 'reward': 1.0, 'condition': 'stop', 'fileName': 'trianglegreen.gif'}, {'stopOrGo': 'go', 'reward': 4.0, 'condition': 'go', 'fileName': 'circlecyan.gif'}, {'stopOrGo': 'stop', 'reward': 2.0, 'condition': 'stop', 'fileName': 'linewhite.gif'}, {'stopOrGo': 'stop', 'reward': 2.0, 'condition': 'stop', 'fileName': 'linewhite.gif'}, {'stopOrGo': 'go', 'reward': 2.0, 'condition': 'go', 'fileName': 'diamondorange.gif'}, {'stopOrGo': 'go', 'reward': 4.0, 'condition': 'go', 'fileName': 'circlecyan.gif'}, {'stopOrGo': 'stop', 'reward': 2.0, 'condition': 'stop', 'fileName': 'linewhite.gif'}, {'stopOrGo': 'go', 'reward': 4.0, 'condition': 'go', 'fileName': 'circlecyan.gif'}, {'stopOrGo': 'go', 'reward': 4.0, 'condition': 'go', 'fileName': 'circlecyan.gif'}, {'stopOrGo': 'stop', 'reward': 0.5, 'condition': 'stop', 'fileName': 'hexagonmagenta.gif'}, {'stopOrGo': 'go', 'reward': 2.0, 'condition': 'go', 'fileName': 'diamondorange.gif'}, {'stopOrGo': 'stop', 'reward': 4.0, 'condition': 'stop', 'fileName': 'crossyellow.gif'}, {'stopOrGo': 'go', 'reward': 0.5, 'condition': 'go', 'fileName': 'invertedtriangleblue.gif'}, {'stopOrGo': 'stop', 'reward': 0.5, 'condition': 'stop', 'fileName': 'hexagonmagenta.gif'}, {'stopOrGo': 'go', 'reward': 1.0, 'condition': 'go', 'fileName': 'squaregray.gif'}, {'stopOrGo': 'go', 'reward': 1.0, 'condition': 'go', 'fileName': 'squaregray.gif'}, {'stopOrGo': 'stop', 'reward': 4.0, 'condition': 'stop', 'fileName': 'crossyellow.gif'}, {'stopOrGo': 'go', 'reward': 0.5, 'condition': 'go', 'fileName': 'invertedtriangleblue.gif'}, {'stopOrGo': 'go', 'reward': 2.0, 'condition': 'go', 'fileName': 'diamondorange.gif'}, {'stopOrGo': 'go', 'reward': 0.5, 'condition': 'go', 'fileName': 'invertedtriangleblue.gif'}, {'stopOrGo': 'go', 'reward': 1.0, 'condition': 'stop', 'fileName': 'trianglegreen.gif'}, {'stopOrGo': 'go', 'reward': 1.0, 'condition': 'go', 'fileName': 'squaregray.gif'}, {'stopOrGo': 'stop', 'reward': 4.0, 'condition': 'stop', 'fileName': 'crossyellow.gif'}, {'stopOrGo': 'go', 'reward': 0.5, 'condition': 'go', 'fileName': 'invertedtriangleblue.gif'}, {'stopOrGo': 'go', 'reward': 0.5, 'condition': 'go', 'fileName': 'invertedtriangleblue.gif'}, {'stopOrGo': 'stop', 'reward': 4.0, 'condition': 'stop', 'fileName': 'crossyellow.gif'}, {'stopOrGo': 'go', 'reward': 1.0, 'condition': 'go', 'fileName': 'squaregray.gif'}, {'stopOrGo': 'go', 'reward': 2.0, 'condition': 'go', 'fileName': 'diamondorange.gif'}, {'stopOrGo': 'go', 'reward': 1.0, 'condition': 'go', 'fileName': 'squaregray.gif'}, {'stopOrGo': 'stop', 'reward': 1.0, 'condition': 'stop', 'fileName': 'trianglegreen.gif'}, {'stopOrGo': 'stop', 'reward': 0.5, 'condition': 'stop', 'fileName': 'hexagonmagenta.gif'}, {'stopOrGo': 'stop', 'reward': 2.0, 'condition': 'stop', 'fileName': 'linewhite.gif'}, {'stopOrGo': 'go', 'reward': 2.0, 'condition': 'go', 'fileName': 'diamondorange.gif'}, {'stopOrGo': 'go', 'reward': 1.0, 'condition': 'stop', 'fileName': 'trianglegreen.gif'}, {'stopOrGo': 'go', 'reward': 1.0, 'condition': 'go', 'fileName': 'squaregray.gif'}, {'stopOrGo': 'stop', 'reward': 4.0, 'condition': 'stop', 'fileName': 'crossyellow.gif'}, {'stopOrGo': 'stop', 'reward': 4.0, 'condition': 'stop', 'fileName': 'crossyellow.gif'}, {'stopOrGo': 'go', 'reward': 0.5, 'condition': 'go', 'fileName': 'invertedtriangleblue.gif'}, {'stopOrGo': 'go', 'reward': 2.0, 'condition': 'go', 'fileName': 'diamondorange.gif'}, {'stopOrGo': 'go', 'reward': 4.0, 'condition': 'go', 'fileName': 'circlecyan.gif'}, {'stopOrGo': 'go', 'reward': 2.0, 'condition': 'go', 'fileName': 'diamondorange.gif'}, {'stopOrGo': 'go', 'reward': 4.0, 'condition': 'go', 'fileName': 'circlecyan.gif'}, {'stopOrGo': 'stop', 'reward': 0.5, 'condition': 'stop', 'fileName': 'hexagonmagenta.gif'}, {'stopOrGo': 'go', 'reward': 1.0, 'condition': 'go', 'fileName': 'squaregray.gif'}, {'stopOrGo': 'stop', 'reward': 1.0, 'condition': 'stop', 'fileName': 'trianglegreen.gif'}, {'stopOrGo': 'stop', 'reward': 2.0, 'condition': 'stop', 'fileName': 'linewhite.gif'}, {'stopOrGo': 'go', 'reward': 2.0, 'condition': 'go', 'fileName': 'diamondorange.gif'}, {'stopOrGo': 'go', 'reward': 0.5, 'condition': 'go', 'fileName': 'invertedtriangleblue.gif'}, {'stopOrGo': 'go', 'reward': 2.0, 'condition': 'go', 'fileName': 'diamondorange.gif'}, {'stopOrGo': 'go', 'reward': 4.0, 'condition': 'stop', 'fileName': 'crossyellow.gif'}, {'stopOrGo': 'stop', 'reward': 2.0, 'condition': 'stop', 'fileName': 'linewhite.gif'}, {'stopOrGo': 'stop', 'reward': 4.0, 'condition': 'stop', 'fileName': 'crossyellow.gif'}, {'stopOrGo': 'stop', 'reward': 0.5, 'condition': 'stop', 'fileName': 'hexagonmagenta.gif'}, {'stopOrGo': 'stop', 'reward': 2.0, 'condition': 'stop', 'fileName': 'linewhite.gif'}, {'stopOrGo': 'go', 'reward': 4.0, 'condition': 'go', 'fileName': 'circlecyan.gif'}, {'stopOrGo': 'go', 'reward': 1.0, 'condition': 'go', 'fileName': 'squaregray.gif'}, {'stopOrGo': 'stop', 'reward': 2.0, 'condition': 'stop', 'fileName': 'linewhite.gif'}, {'stopOrGo': 'go', 'reward': 1.0, 'condition': 'go', 'fileName': 'squaregray.gif'}, {'stopOrGo': 'go', 'reward': 4.0, 'condition': 'go', 'fileName': 'circlecyan.gif'}, {'stopOrGo': 'stop', 'reward': 1.0, 'condition': 'stop', 'fileName': 'trianglegreen.gif'}, {'stopOrGo': 'go', 'reward': 1.0, 'condition': 'go', 'fileName': 'squaregray.gif'}, {'stopOrGo': 'go', 'reward': 2.0, 'condition': 'go', 'fileName': 'diamondorange.gif'}, {'stopOrGo': 'stop', 'reward': 1.0, 'condition': 'stop', 'fileName': 'trianglegreen.gif'}, {'stopOrGo': 'stop', 'reward': 4.0, 'condition': 'stop', 'fileName': 'crossyellow.gif'}, {'stopOrGo': 'stop', 'reward': 2.0, 'condition': 'stop', 'fileName': 'linewhite.gif'}, {'stopOrGo': 'go', 'reward': 2.0, 'condition': 'go', 'fileName': 'diamondorange.gif'}, {'stopOrGo': 'go', 'reward': 1.0, 'condition': 'go', 'fileName': 'squaregray.gif'}, {'stopOrGo': 'stop', 'reward': 1.0, 'condition': 'stop', 'fileName': 'trianglegreen.gif'}, {'stopOrGo': 'go', 'reward': 2.0, 'condition': 'stop', 'fileName': 'linewhite.gif'}, {'stopOrGo': 'stop', 'reward': 1.0, 'condition': 'stop', 'fileName': 'trianglegreen.gif'}, {'stopOrGo': 'go', 'reward': 0.5, 'condition': 'go', 'fileName': 'invertedtriangleblue.gif'}, {'stopOrGo': 'go', 'reward': 0.5, 'condition': 'stop', 'fileName': 'hexagonmagenta.gif'}, {'stopOrGo': 'go', 'reward': 4.0, 'condition': 'go', 'fileName': 'circlecyan.gif'}, {'stopOrGo': 'stop', 'reward': 4.0, 'condition': 'stop', 'fileName': 'crossyellow.gif'}, {'stopOrGo': 'go', 'reward': 2.0, 'condition': 'go', 'fileName': 'diamondorange.gif'}, {'stopOrGo': 'stop', 'reward': 2.0, 'condition': 'stop', 'fileName': 'linewhite.gif'}, {'stopOrGo': 'go', 'reward': 2.0, 'condition': 'go', 'fileName': 'diamondorange.gif'}, {'stopOrGo': 'go', 'reward': 0.5, 'condition': 'stop', 'fileName': 'hexagonmagenta.gif'}, {'stopOrGo': 'go', 'reward': 4.0, 'condition': 'go', 'fileName': 'circlecyan.gif'}, {'stopOrGo': 'go', 'reward': 1.0, 'condition': 'go', 'fileName': 'squaregray.gif'}, {'stopOrGo': 'go', 'reward': 4.0, 'condition': 'stop', 'fileName': 'crossyellow.gif'}, {'stopOrGo': 'go', 'reward': 4.0, 'condition': 'go', 'fileName': 'circlecyan.gif'}, {'stopOrGo': 'go', 'reward': 0.5, 'condition': 'go', 'fileName': 'invertedtriangleblue.gif'}, {'stopOrGo': 'stop', 'reward': 1.0, 'condition': 'stop', 'fileName': 'trianglegreen.gif'}, {'stopOrGo': 'go', 'reward': 2.0, 'condition': 'go', 'fileName': 'diamondorange.gif'}, {'stopOrGo': 'go', 'reward': 4.0, 'condition': 'go', 'fileName': 'circlecyan.gif'}, {'stopOrGo': 'go', 'reward': 4.0, 'condition': 'stop', 'fileName': 'crossyellow.gif'}, {'stopOrGo': 'stop', 'reward': 4.0, 'condition': 'stop', 'fileName': 'crossyellow.gif'}, {'stopOrGo': 'go', 'reward': 2.0, 'condition': 'stop', 'fileName': 'linewhite.gif'}, {'stopOrGo': 'stop', 'reward': 1.0, 'condition': 'stop', 'fileName': 'trianglegreen.gif'}, {'stopOrGo': 'go', 'reward': 4.0, 'condition': 'stop', 'fileName': 'crossyellow.gif'}, {'stopOrGo': 'go', 'reward': 4.0, 'condition': 'go', 'fileName': 'circlecyan.gif'}, {'stopOrGo': 'stop', 'reward': 4.0, 'condition': 'stop', 'fileName': 'crossyellow.gif'}, {'stopOrGo': 'stop', 'reward': 4.0, 'condition': 'stop', 'fileName': 'crossyellow.gif'}, {'stopOrGo': 'go', 'reward': 0.5, 'condition': 'go', 'fileName': 'invertedtriangleblue.gif'}, {'stopOrGo': 'go', 'reward': 2.0, 'condition': 'go', 'fileName': 'diamondorange.gif'}, {'stopOrGo': 'stop', 'reward': 1.0, 'condition': 'stop', 'fileName': 'trianglegreen.gif'}, {'stopOrGo': 'go', 'reward': 2.0, 'condition': 'go', 'fileName': 'diamondorange.gif'}, {'stopOrGo': 'stop', 'reward': 4.0, 'condition': 'stop', 'fileName': 'crossyellow.gif'}, {'stopOrGo': 'go', 'reward': 0.5, 'condition': 'stop', 'fileName': 'hexagonmagenta.gif'}, {'stopOrGo': 'go', 'reward': 0.5, 'condition': 'go', 'fileName': 'invertedtriangleblue.gif'}, {'stopOrGo': 'go', 'reward': 0.5, 'condition': 'go', 'fileName': 'invertedtriangleblue.gif'}, {'stopOrGo': 'go', 'reward': 2.0, 'condition': 'go', 'fileName': 'diamondorange.gif'}, {'stopOrGo': 'stop', 'reward': 0.5, 'condition': 'stop', 'fileName': 'hexagonmagenta.gif'}, {'stopOrGo': 'stop', 'reward': 2.0, 'condition': 'stop', 'fileName': 'linewhite.gif'}, {'stopOrGo': 'go', 'reward': 4.0, 'condition': 'go', 'fileName': 'circlecyan.gif'}, {'stopOrGo': 'go', 'reward': 1.0, 'condition': 'go', 'fileName': 'squaregray.gif'}, {'stopOrGo': 'go', 'reward': 0.5, 'condition': 'go', 'fileName': 'invertedtriangleblue.gif'}, {'stopOrGo': 'go', 'reward': 0.5, 'condition': 'stop', 'fileName': 'hexagonmagenta.gif'}, {'stopOrGo': 'go', 'reward': 2.0, 'condition': 'go', 'fileName': 'diamondorange.gif'}]","[{'stopOrGo': 'go', 'reward': 2.0, 'condition': 'go', 'fileName': 'diamondorange.gif'}, {'stopOrGo': 'stop', 'reward': 1.0, 'condition': 'stop', 'fileName': 'trianglegreen.gif'}, {'stopOrGo': 'stop', 'reward': 0.5, 'condition': 'stop', 'fileName': 'hexagonmagenta.gif'}, {'stopOrGo': 'stop', 'reward': 1.0, 'condition': 'stop', 'fileName': 'trianglegreen.gif'}, {'stopOrGo': 'stop', 'reward': 1.0, 'condition': 'stop', 'fileName': 'trianglegreen.gif'}, {'stopOrGo': 'go', 'reward': 0.5, 'condition': 'go', 'fileName': 'invertedtriangleblue.gif'}, {'stopOrGo': 'stop', 'reward': 1.0, 'condition': 'stop', 'fileName': 'trianglegreen.gif'}, {'stopOrGo': 'stop', 'reward': 1.0, 'condition': 'stop', 'fileName': 'trianglegreen.gif'}, {'stopOrGo': 'go', 'reward': 4.0, 'condition': 'go', 'fileName': 'circlecyan.gif'}, {'stopOrGo': 'stop', 'reward': 4.0, 'condition': 'stop', 'fileName': 'crossyellow.gif'}]","[{'stopOrGo': 'stop', 'reward': 4.0, 'condition': 'stop', 'auctionAmount': [216, 162, 270, 108, 54, 324], 'fileName': 'crossyellow.gif'}, {'stopOrGo': 'stop', 'reward': 0.5, 'condition': 'stop', 'auctionAmount': [220, 264, 176, 44, 88, 132], 'fileName': 'hexagonmagenta.gif'}, {'stopOrGo': 'go', 'reward': 4.0, 'condition': 'go', 'auctionAmount': [220, 44, 176, 88, 264, 132], 'fileName': 'circlecyan.gif'}, {'stopOrGo': 'stop', 'reward': 0.5, 'condition': 'stop', 'auctionAmount': [294, 245, 196, 147, 49, 98], 'fileName': 'hexagonmagenta.gif'}, {'stopOrGo': 'go', 'reward': 4.0, 'condition': 'go', 'auctionAmount': [195, 234, 156, 78, 117, 39], 'fileName': 'circlecyan.gif'}, {'stopOrGo': 'go', 'reward': 1.0, 'condition': 'go', 'auctionAmount': [54, 270, 162, 108, 324, 216], 'fileName': 'squaregray.gif'}, {'stopOrGo': 'go', 'reward': 0.5, 'condition': 'go', 'auctionAmount': [245, 49, 147, 294, 98, 196], 'fileName': 'invertedtriangleblue.gif'}, {'stopOrGo': 'stop', 'reward': 4.0, 'condition': 'stop', 'auctionAmount': [136, 204, 102, 68, 34, 170], 'fileName': 'crossyellow.gif'}, {'stopOrGo': 'stop', 'reward': 2.0, 'condition': 'stop', 'auctionAmount': [270, 54, 108, 162, 324, 216], 'fileName': 'linewhite.gif'}, {'stopOrGo': 'stop', 'reward': 0.5, 'condition': 'stop', 'auctionAmount': [234, 39, 156, 117, 195, 78], 'fileName': 'hexagonmagenta.gif'}, {'stopOrGo': 'go', 'reward': 4.0, 'condition': 'go', 'auctionAmount': [78, 39, 117, 234, 195, 156], 'fileName': 'circlecyan.gif'}, {'stopOrGo': 'stop', 'reward': 0.5, 'condition': 'stop', 'auctionAmount': [108, 54, 216, 270, 324, 162], 'fileName': 'hexagonmagenta.gif'}, {'stopOrGo': 'go', 'reward': 2.0, 'condition': 'go', 'auctionAmount': [324, 108, 54, 270, 216, 162], 'fileName': 'diamondorange.gif'}, {'stopOrGo': 'go', 'reward': 0.5, 'condition': 'go', 'auctionAmount': [234, 195, 156, 39, 117, 78], 'fileName': 'invertedtriangleblue.gif'}, {'stopOrGo': 'stop', 'reward': 2.0, 'condition': 'stop', 'auctionAmount': [49, 294, 245, 147, 98, 196], 'fileName': 'linewhite.gif'}, {'stopOrGo': 'stop', 'reward': 4.0, 'condition': 'stop', 'auctionAmount': [98, 294, 245, 196, 49, 147], 'fileName': 'crossyellow.gif'}, {'stopOrGo': 'go', 'reward': 4.0, 'condition': 'go', 'auctionAmount': [132, 264, 88, 220, 176, 44], 'fileName': 'circlecyan.gif'}, {'stopOrGo': 'stop', 'reward': 1.0, 'condition': 'stop', 'auctionAmount': [220, 44, 264, 132, 176, 88], 'fileName': 'trianglegreen.gif'}, {'stopOrGo': 'go', 'reward': 1.0, 'condition': 'go', 'auctionAmount': [234, 195, 78, 156, 117, 39], 'fileName': 'squaregray.gif'}, {'stopOrGo': 'go', 'reward': 4.0, 'condition': 'go', 'auctionAmount': [98, 196, 245, 147, 49, 294], 'fileName': 'circlecyan.gif'}, {'stopOrGo': 'stop', 'reward': 4.0, 'condition': 'stop', 'auctionAmount': [245, 49, 294, 196, 147, 98], 'fileName': 'crossyellow.gif'}, {'stopOrGo': 'go', 'reward': 1.0, 'condition': 'go', 'auctionAmount': [108, 324, 270, 162, 54, 216], 'fileName': 'squaregray.gif'}, {'stopOrGo': 'go', 'reward': 0.5, 'condition': 'go', 'auctionAmount': [216, 324, 54, 270, 162, 108], 'fileName': 'invertedtriangleblue.gif'}, {'stopOrGo': 'stop', 'reward': 0.5, 'condition': 'stop', 'auctionAmount': [88, 44, 132, 264, 220, 176], 'fileName': 'hexagonmagenta.gif'}, {'stopOrGo': 'stop', 'reward': 2.0, 'condition': 'stop', 'auctionAmount': [34, 102, 170, 204, 68, 136], 'fileName': 'linewhite.gif'}, {'stopOrGo': 'stop', 'reward': 2.0, 'condition': 'stop', 'auctionAmount': [216, 270, 54, 162, 108, 324], 'fileName': 'linewhite.gif'}, {'stopOrGo': 'go', 'reward': 2.0, 'condition': 'go', 'auctionAmount': [245, 147, 294, 196, 49, 98], 'fileName': 'diamondorange.gif'}, {'stopOrGo': 'go', 'reward': 2.0, 'condition': 'go', 'auctionAmount': [147, 98, 196, 294, 49, 245], 'fileName': 'diamondorange.gif'}, {'stopOrGo': 'go', 'reward': 0.5, 'condition': 'go', 'auctionAmount': [78, 195, 156, 39, 234, 117], 'fileName': 'invertedtriangleblue.gif'}, {'stopOrGo': 'go', 'reward': 1.0, 'condition': 'go', 'auctionAmount': [39, 234, 78, 195, 117, 156], 'fileName': 'squaregray.gif'}, {'stopOrGo': 'stop', 'reward': 4.0, 'condition': 'stop', 'auctionAmount': [324, 54, 162, 108, 270, 216], 'fileName': 'crossyellow.gif'}, {'stopOrGo': 'go', 'reward': 0.5, 'condition': 'go', 'auctionAmount': [264, 176, 220, 88, 132, 44], 'fileName': 'invertedtriangleblue.gif'}, {'stopOrGo': 'stop', 'reward': 0.5, 'condition': 'stop', 'auctionAmount': [54, 270, 108, 216, 324, 162], 'fileName': 'hexagonmagenta.gif'}, {'stopOrGo': 'stop', 'reward': 2.0, 'condition': 'stop', 'auctionAmount': [156, 234, 117, 195, 78, 39], 'fileName': 'linewhite.gif'}, {'stopOrGo': 'go', 'reward': 2.0, 'condition': 'go', 'auctionAmount': [78, 234, 39, 117, 156, 195], 'fileName': 'diamondorange.gif'}, {'stopOrGo': 'stop', 'reward': 1.0, 'condition': 'stop', 'auctionAmount': [49, 294, 98, 245, 196, 147], 'fileName': 'trianglegreen.gif'}, {'stopOrGo': 'go', 'reward': 0.5, 'condition': 'go', 'auctionAmount': [324, 162, 54, 108, 270, 216], 'fileName': 'invertedtriangleblue.gif'}, {'stopOrGo': 'go', 'reward': 2.0, 'condition': 'go', 'auctionAmount': [44, 176, 88, 264, 220, 132], 'fileName': 'diamondorange.gif'}, {'stopOrGo': 'stop', 'reward': 1.0, 'condition': 'stop', 'auctionAmount': [170, 102, 68, 136, 34, 204], 'fileName': 'trianglegreen.gif'}, {'stopOrGo': 'go', 'reward': 1.0, 'condition': 'go', 'auctionAmount': [102, 68, 136, 204, 34, 170], 'fileName': 'squaregray.gif'}, {'stopOrGo': 'go', 'reward': 0.5, 'condition': 'go', 'auctionAmount': [136, 68, 170, 102, 34, 204], 'fileName': 'invertedtriangleblue.gif'}, {'stopOrGo': 'go', 'reward': 1.0, 'condition': 'go', 'auctionAmount': [176, 220, 44, 88, 264, 132], 'fileName': 'squaregray.gif'}, {'stopOrGo': 'go', 'reward': 4.0, 'condition': 'go', 'auctionAmount': [204, 136, 102, 68, 34, 170], 'fileName': 'circlecyan.gif'}, {'stopOrGo': 'go', 'reward': 4.0, 'condition': 'go', 'auctionAmount': [136, 170, 102, 34, 204, 68], 'fileName': 'circlecyan.gif'}, {'stopOrGo': 'stop', 'reward': 0.5, 'condition': 'stop', 'auctionAmount': [196, 49, 147, 98, 294, 245], 'fileName': 'hexagonmagenta.gif'}, {'stopOrGo': 'stop', 'reward': 4.0, 'condition': 'stop', 'auctionAmount': [234, 117, 78, 156, 39, 195], 'fileName': 'crossyellow.gif'}, {'stopOrGo': 'stop', 'reward': 1.0, 'condition': 'stop', 'auctionAmount': [234, 156, 78, 117, 195, 39], 'fileName': 'trianglegreen.gif'}, {'stopOrGo': 'go', 'reward': 2.0, 'condition': 'go', 'auctionAmount': [136, 102, 204, 68, 170, 34], 'fileName': 'diamondorange.gif'}, {'stopOrGo': 'go', 'reward': 1.0, 'condition': 'go', 'auctionAmount': [68, 204, 170, 34, 102, 136], 'fileName': 'squaregray.gif'}, {'stopOrGo': 'go', 'reward': 1.0, 'condition': 'go', 'auctionAmount': [88, 264, 44, 132, 176, 220], 'fileName': 'squaregray.gif'}, {'stopOrGo': 'stop', 'reward': 1.0, 'condition': 'stop', 'auctionAmount': [44, 220, 132, 264, 88, 176], 'fileName': 'trianglegreen.gif'}, {'stopOrGo': 'go', 'reward': 0.5, 'condition': 'go', 'auctionAmount': [34, 204, 136, 170, 102, 68], 'fileName': 'invertedtriangleblue.gif'}, {'stopOrGo': 'stop', 'reward': 4.0, 'condition': 'stop', 'auctionAmount': [156, 78, 234, 117, 39, 195], 'fileName': 'crossyellow.gif'}, {'stopOrGo': 'stop', 'reward': 2.0, 'condition': 'stop', 'auctionAmount': [88, 220, 44, 132, 176, 264], 'fileName': 'linewhite.gif'}, {'stopOrGo': 'go', 'reward': 4.0, 'condition': 'go', 'auctionAmount': [216, 108, 162, 324, 54, 270], 'fileName': 'circlecyan.gif'}, {'stopOrGo': 'stop', 'reward': 4.0, 'condition': 'stop', 'auctionAmount': [102, 136, 34, 204, 170, 68], 'fileName': 'crossyellow.gif'}, {'stopOrGo': 'stop', 'reward': 0.5, 'condition': 'stop', 'auctionAmount': [102, 204, 68, 34, 170, 136], 'fileName': 'hexagonmagenta.gif'}, {'stopOrGo': 'stop', 'reward': 0.5, 'condition': 'stop', 'auctionAmount': [136, 170, 68, 34, 102, 204], 'fileName': 'hexagonmagenta.gif'}, {'stopOrGo': 'stop', 'reward': 1.0, 'condition': 'stop', 'auctionAmount': [108, 270, 162, 54, 216, 324], 'fileName': 'trianglegreen.gif'}, {'stopOrGo': 'stop', 'reward': 2.0, 'condition': 'stop', 'auctionAmount': [176, 132, 264, 44, 220, 88], 'fileName': 'linewhite.gif'}]",9,2.18525505066,,,,,,,,,,,,,,,,,,,,,,,,,,,,,,,,,,,,,,,,,,,,,,,,,,,,,,,,,,,,2015_Jun_17_2055,59.9714891554,LearningTask,1,555,
,,,,,,,,,,,,,,,,,,,,,,,,,,,,,,,,,,,,,,,,,,,,,,,,,,space,34.066865921,,,,,,,,,,,,,,,,,,,,,,,,,,,,,,,,,,,,,,,,,,,,,,,,,,,,,,,,,,2015_Jun_17_2055,59.9714891554,LearningTask,1,555,
,,,,,,,,,,,,,,,,,,,,,,,,,,,,,,,,,,,,,,,,,,,,,,,,9,2.63250494003,,,,,,,,,,,,,,,,,,,,,,,,,,,,,,,,,,,,,,,,,,,,,,,,,,,,,,,,,,,,2015_Jun_17_2055,59.9714891554,LearningTask,1,555,
200,w,200,,,,,,,,,,,,0,0,0,0,0,0,0,0,,,,,,,,,,,,,,,,,,,,,,,,,,,,,,,w,1,0.58438706398,None,0,2.0,0,0.512673139572,0.00545120239258,0.58438706398,1,w,83.7939858437,,,,,,,,,,,,,,,,,,,,,,,,,,,,,,,,,,,,,,,,,,,,,2015_Jun_17_2055,59.9714891554,LearningTask,1,555,
-200,q,200,,,,,,,,,,,,0,0,0,0,0,1,1,1,,,,,,,,,,,,,,,,,,,,,,,,,,,,,,,q,1,0.317484855652,None,0,2.0,2.23,0.511161088943,0.00130319595337,0.317484855652,1,q,86.7932748795,,,,,,,,,,,,,,,,,,,,,,,,,,,,,,,,,,,,,,,,,,,,,2015_Jun_17_2055,59.9714891554,LearningTask,1,555,
-200,q,200,,,,,,,,,,,,0,0,0,0,0,2,2,1,,,,,,,,,,,,,,,,,,,,,,,,,,,,,,,q,1,0.367691040039,None,0,2.0,0,0.51215004921,0.00120210647583,0.367691040039,1,q,89.7936518192,,,,,,,,,,,,,,,,,,,,,,,,,,,,,,,,,,,,,,,,,,,,,2015_Jun_17_2055,59.9714891554,LearningTask,1,555,
200,w,200,,,,,,,,,,,,0,0,0,0,0,3,3,0,,,,,,,,,,,,,,,,,,,,,,,,,,,,,,,w,1,0.334213972092,None,0,1.0,0.99,0.511519193649,0.00242710113525,0.334213972092,1,w,92.7936828136,,,,,,,,,,,,,,,,,,,,,,,,,,,,,,,,,,,,,,,,,,,,,2015_Jun_17_2055,59.9714891554,LearningTask,1,555,
200,w,200,,,,,,,,,,,,0,0,0,0,1,0,4,0,,,,,,,,,,,,,,,,,,,,,,,,,,,,,,,w,1,0.350929021835,None,0,1.0,0,0.512351989746,0.0011830329895,0.350929021835,1,w,95.7939698696,,,,,,,,,,,,,,,,,,,,,,,,,,,,,,,,,,,,,,,,,,,,,2015_Jun_17_2055,59.9714891554,LearningTask,1,555,
200,s,-200,,,,,,,,,,,,0,0,0,0,1,1,5,2,,,,,,,,,,,,,,,,,,,,,,,,,,,,,,,s,1,0.40008187294,None,0,2.0,0,0.51184296608,0.00172805786133,0.40008187294,1,s,98.7942910194,,,,,,,,,,,,,,,,,,,,,,,,,,,,,,,,,,,,,,,,,,,,,2015_Jun_17_2055,59.9714891554,LearningTask,1,555,
-200,a,-200,,,,,,,,,,,,0,0,0,0,1,2,6,3,,,,,,,,,,,,,,,,,,,,,,,,,,,,,,,a,1,0.383391141891,None,0,4.0,3.83,0.511758089066,0.00297808647156,0.383391141891,1,a,101.794274807,,,,,,,,,,,,,,,,,,,,,,,,,,,,,,,,,,,,,,,,,,,,,2015_Jun_17_2055,59.9714891554,LearningTask,1,555,
200,s,-200,,,,,,,,,,,,0,0,0,0,1,3,7,2,,,,,,,,,,,,,,,,,,,,,,,,,,,,,,,s,1,0.417484998703,None,0,0.5,0,0.51231098175,0.00323390960693,0.417484998703,1,s,104.79510498,,,,,,,,,,,,,,,,,,,,,,,,,,,,,,,,,,,,,,,,,,,,,2015_Jun_17_2055,59.9714891554,LearningTask,1,555,
-200,a,-200,,,,,,,,,,,,0,0,0,0,2,0,8,3,,,,,,,,,,,,,,,,,,,,,,,,,,,,,,,a,1,0.366678953171,None,0,1.0,0.86,0.511700868607,0.00120496749878,0.366678953171,1,a,107.794897795,,,,,,,,,,,,,,,,,,,,,,,,,,,,,,,,,,,,,,,,,,,,,2015_Jun_17_2055,59.9714891554,LearningTask,1,555,
-200,q,200,,,,,,,,,,,,0,0,0,0,2,1,9,1,,,,,,,,,,,,,,,,,,,,,,,,,,,,,,,q,1,0.384541988373,None,0,0.5,0.45,0.511325120926,0.00327706336975,0.384541988373,1,q,110.795498848,,,,,,,,,,,,,,,,,,,,,,,,,,,,,,,,,,,,,,,,,,,,,2015_Jun_17_2055,59.9714891554,LearningTask,1,555,
200,w,200,,,,,,,,,,,,0,0,0,0,2,2,10,0,,,,,,,,,,,,,,,,,,,,,,,,,,,,,,,w,1,0.417516946793,None,0,4.0,4.12,0.511259078979,0.00239706039429,0.417516946793,1,w,113.795131922,,,,,,,,,,,,,,,,,,,,,,,,,,,,,,,,,,,,,,,,,,,,,2015_Jun_17_2055,59.9714891554,LearningTask,1,555,
-200,a,-200,,,,,,,,,,,,0,0,0,0,2,3,11,3,,,,,,,,,,,,,,,,,,,,,,,,,,,,,,,a,1,0.434318065643,None,0,2.0,2.25,0.51211309433,0.00310301780701,0.434318065643,1,a,116.795712948,,,,,,,,,,,,,,,,,,,,,,,,,,,,,,,,,,,,,,,,,,,,,2015_Jun_17_2055,59.9714891554,LearningTask,1,555,
200,w,200,,,,,,,,,,,,0,0,0,0,3,0,12,0,,,,,,,,,,,,,,,,,,,,,,,,,,,,,,,w,1,0.40113902092,None,0,0.5,0.52,0.511605978012,0.00139379501343,0.40113902092,1,w,119.795789003,,,,,,,,,,,,,,,,,,,,,,,,,,,,,,,,,,,,,,,,,,,,,2015_Jun_17_2055,59.9714891554,LearningTask,1,555,
200,s,-200,,,,,,,,,,,,0,0,0,0,3,1,13,2,,,,,,,,,,,,,,,,,,,,,,,,,,,,,,,s,1,0.400818824768,None,0,1.0,0.95,0.512249946594,0.00122094154358,0.400818824768,1,s,122.795207024,,,,,,,,,,,,,,,,,,,,,,,,,,,,,,,,,,,,,,,,,,,,,2015_Jun_17_2055,59.9714891554,LearningTask,1,555,
200,w,200,,,,,,,,,,,,0,0,0,0,3,2,14,0,,,,,,,,,,,,,,,,,,,,,,,,,,,,,,,w,1,0.500738859177,None,0,1.0,1.13,0.513112068176,0.00186395645142,0.500738859177,1,w,125.795275927,,,,,,,,,,,,,,,,,,,,,,,,,,,,,,,,,,,,,,,,,,,,,2015_Jun_17_2055,59.9714891554,LearningTask,1,555,
-200,q,200,,,,,,,,,,,,0,0,0,0,3,3,15,1,,,,,,,,,,,,,,,,,,,,,,,,,,,,,,,q,1,0.36786198616,w,0,4.0,4.25,0.513623952866,0.00110292434692,0.36786198616,1,q,128.796443939,0.554224014282,,,,,,,,,,,,,,,,,,,,,,,,,,,,,,,,,,,,,,,,,,,,2015_Jun_17_2055,59.9714891554,LearningTask,1,555,
200,w,200,,,,,,,,,,,,0,0,0,0,4,0,16,0,,,,,,,,,,,,,,,,,,,,,,,,,,,,,,,w,1,0.350412130356,None,0,4.0,4.06,0.511788129807,0.00129914283752,0.350412130356,1,w,131.795644999,,,,,,,,,,,,,,,,,,,,,,,,,,,,,,,,,,,,,,,,,,,,,2015_Jun_17_2055,59.9714891554,LearningTask,1,555,
-200,a,-200,,,,,,,,,,,,0,0,0,0,4,1,17,3,,,,,,,,,,,,,,,,,,,,,,,,,,,,,,,a,1,0.417580127716,None,0,4.0,0,0.513372182846,0.000874996185303,0.417580127716,1,a,134.795838833,,,,,,,,,,,,,,,,,,,,,,,,,,,,,,,,,,,,,,,,,,,,,2015_Jun_17_2055,59.9714891554,LearningTask,1,555,
-200,q,200,,,,,,,,,,,,0,0,0,0,4,2,18,1,,,,,,,,,,,,,,,,,,,,,,,,,,,,,,,q,1,0.517308950424,None,0,0.5,0.27,0.513375043869,0.000897169113159,0.517308950424,1,q,137.795742989,,,,,,,,,,,,,,,,,,,,,,,,,,,,,,,,,,,,,,,,,,,,,2015_Jun_17_2055,59.9714891554,LearningTask,1,555,
-200,q,200,,,,,,,,,,,,0,0,0,0,4,3,19,1,,,,,,,,,,,,,,,,,,,,,,,,,,,,,,,q,1,0.38426399231,None,0,2.0,0,0.513024091721,0.00170803070068,0.38426399231,1,q,140.797385931,,,,,,,,,,,,,,,,,,,,,,,,,,,,,,,,,,,,,,,,,,,,,2015_Jun_17_2055,59.9714891554,LearningTask,1,555,
-200,a,-200,,,,,,,,,,,,0,0,0,0,5,0,20,3,,,,,,,,,,,,,,,,,,,,,,,,,,,,,,,a,1,0.400924921036,None,0,4.0,4.04,0.511704921722,0.00171685218811,0.400924921036,1,a,143.797287941,,,,,,,,,,,,,,,,,,,,,,,,,,,,,,,,,,,,,,,,,,,,,2015_Jun_17_2055,59.9714891554,LearningTask,1,555,
200,w,200,,,,,,,,,,,,0,0,0,0,5,1,21,0,,,,,,,,,,,,,,,,,,,,,,,,,,,,,,,w,1,0.383800029755,None,0,1.0,0.89,0.512294054031,0.00166606903076,0.383800029755,1,w,146.797613859,,,,,,,,,,,,,,,,,,,,,,,,,,,,,,,,,,,,,,,,,,,,,2015_Jun_17_2055,59.9714891554,LearningTask,1,555,
-200,a,-200,,,,,,,,,,,,0,0,0,0,5,2,22,3,,,,,,,,,,,,,,,,,,,,,,,,,,,,,,,a,1,0.467751979828,None,0,2.0,0,0.51170706749,0.00130295753479,0.467751979828,1,a,149.797924995,,,,,,,,,,,,,,,,,,,,,,,,,,,,,,,,,,,,,,,,,,,,,2015_Jun_17_2055,59.9714891554,LearningTask,1,555,
-200,a,-200,,,,,,,,,,,,0,0,0,0,5,3,23,3,,,,,,,,,,,,,,,,,,,,,,,,,,,,,,,a,1,0.350399017334,None,0,2.0,0,0.511478900909,0.00131893157959,[],0,None,152.798316956,0.0242137908936,2.07,0.513473987579,0.00126004219055,0.350399017334,1,a,155.798797846,,,,,,,,,,,,,,,,,,,,,,,,,,,,,,,,,,,,,2015_Jun_17_2055,59.9714891554,LearningTask,1,555,
200,w,200,,,,,,,,,,,,0,0,0,0,6,0,24,0,,,,,,,,,,,,,,,,,,,,,,,,,,,,,,,w,1,0.300604104996,None,0,2.0,2.01,0.511982917786,0.00167202949524,0.300604104996,1,w,158.797700882,,,,,,,,,,,,,,,,,,,,,,,,,,,,,,,,,,,,,,,,,,,,,2015_Jun_17_2055,59.9714891554,LearningTask,1,555,
200,w,200,,,,,,,,,,,,0,0,0,0,6,1,25,0,,,,,,,,,,,,,,,,,,,,,,,,,,,,,,,w,1,0.484554052353,None,0,0.5,0.53,0.513101100922,0.00154399871826,0.484554052353,1,w,161.798594952,,,,,,,,,,,,,,,,,,,,,,,,,,,,,,,,,,,,,,,,,,,,,2015_Jun_17_2055,59.9714891554,LearningTask,1,555,
-200,a,-200,,,,,,,,,,,,0,0,0,0,6,2,26,3,,,,,,,,,,,,,,,,,,,,,,,,,,,,,,,a,1,0.367528915405,None,0,0.5,0,0.512348890305,0.00172996520996,0.367528915405,1,a,164.799407005,,,,,,,,,,,,,,,,,,,,,,,,,,,,,,,,,,,,,,,,,,,,,2015_Jun_17_2055,59.9714891554,LearningTask,1,555,
200,w,200,,,,,,,,,,,,0,0,0,0,6,3,27,0,,,,,,,,,,,,,,,,,,,,,,,,,,,,,,,w,1,0.383925914764,None,0,2.0,0,0.511851072311,0.00120401382446,0.383925914764,1,w,167.79941082,,,,,,,,,,,,,,,,,,,,,,,,,,,,,,,,,,,,,,,,,,,,,2015_Jun_17_2055,59.9714891554,LearningTask,1,555,
-200,q,200,,,,,,,,,,,,0,0,0,0,7,0,28,1,,,,,,,,,,,,,,,,,,,,,,,,,,,,,,,q,1,0.417582035065,None,0,2.0,1.99,0.512010097504,0.0012218952179,0.417582035065,1,q,170.799323797,,,,,,,,,,,,,,,,,,,,,,,,,,,,,,,,,,,,,,,,,,,,,2015_Jun_17_2055,59.9714891554,LearningTask,1,555,
-200,q,200,,,,,,,,,,,,0,0,0,0,7,1,29,1,,,,,,,,,,,,,,,,,,,,,,,,,,,,,,,q,1,0.48422908783,None,0,1.0,1.2,0.512237787247,0.00171279907227,0.48422908783,1,q,173.799690008,,,,,,,,,,,,,,,,,,,,,,,,,,,,,,,,,,,,,,,,,,,,,2015_Jun_17_2055,59.9714891554,LearningTask,1,555,
-200,q,200,,,,,,,,,,,,0,0,0,0,7,2,30,1,,,,,,,,,,,,,,,,,,,,,,,,,,,,,,,q,1,0.667535066605,None,0,2.0,1.76,0.512116909027,0.00121307373047,0.667535066605,1,q,176.800081015,,,,,,,,,,,,,,,,,,,,,,,,,,,,,,,,,,,,,,,,,,,,,2015_Jun_17_2055,59.9714891554,LearningTask,1,555,
200,s,-200,,,,,,,,,,,,0,0,0,0,7,3,31,2,,,,,,,,,,,,,,,,,,,,,,,,,,,,,,,s,1,0.45108795166,None,0,1.0,0.96,0.51174902916,0.00130915641785,0.45108795166,1,s,179.800331831,,,,,,,,,,,,,,,,,,,,,,,,,,,,,,,,,,,,,,,,,,,,,2015_Jun_17_2055,59.9714891554,LearningTask,1,555,
200,s,-200,,,,,,,,,,,,0,0,0,0,8,0,32,2,,,,,,,,,,,,,,,,,,,,,,,,,,,,,,,s,1,0.567471027374,None,0,0.5,0.27,0.511435985565,0.00126099586487,0.567471027374,1,s,182.80030179,,,,,,,,,,,,,,,,,,,,,,,,,,,,,,,,,,,,,,,,,,,,,2015_Jun_17_2055,59.9714891554,LearningTask,1,555,
-200,a,-200,,,,,,,,,,,,0,0,0,0,8,1,33,3,,,,,,,,,,,,,,,,,,,,,,,,,,,,,,,a,1,0.567635059357,None,0,0.5,0.51,0.512204170227,0.00120615959167,0.567635059357,1,a,185.800570965,,,,,,,,,,,,,,,,,,,,,,,,,,,,,,,,,,,,,,,,,,,,,2015_Jun_17_2055,59.9714891554,LearningTask,1,555,
200,w,200,,,,,,,,,,,,0,0,0,0,8,2,34,0,,,,,,,,,,,,,,,,,,,,,,,,,,,,,,,w,1,0.450608968735,None,0,1.0,1.23,0.512068986893,0.00119686126709,0.450608968735,1,w,188.800841808,,,,,,,,,,,,,,,,,,,,,,,,,,,,,,,,,,,,,,,,,,,,,2015_Jun_17_2055,59.9714891554,LearningTask,1,555,
-200,q,200,,,,,,,,,,,,0,0,0,0,8,3,35,1,,,,,,,,,,,,,,,,,,,,,,,,,,,,,,,q,1,0.400568962097,None,0,4.0,4.17,0.511673927307,0.00120401382446,0.400568962097,1,q,191.801530838,,,,,,,,,,,,,,,,,,,,,,,,,,,,,,,,,,,,,,,,,,,,,2015_Jun_17_2055,59.9714891554,LearningTask,1,555,
-200,q,200,,,,,,,,,,,,0,0,0,0,9,0,36,1,,,,,,,,,,,,,,,,,,,,,,,,,,,,,,,q,1,0.417572975159,None,0,1.0,0,0.511434078217,0.00115203857422,0.417572975159,1,q,194.801527977,,,,,,,,,,,,,,,,,,,,,,,,,,,,,,,,,,,,,,,,,,,,,2015_Jun_17_2055,59.9714891554,LearningTask,1,555,
200,s,-200,,,,,,,,,,,,0,0,0,0,9,1,37,2,,,,,,,,,,,,,,,,,,,,,,,,,,,,,,,s,1,0.35120511055,None,0,4.0,0,0.511795043945,0.00166487693787,0.35120511055,1,s,197.801314831,,,,,,,,,,,,,,,,,,,,,,,,,,,,,,,,,,,,,,,,,,,,,2015_Jun_17_2055,59.9714891554,LearningTask,1,555,
200,s,-200,,,,,,,,,,,,0,0,0,0,9,2,38,2,,,,,,,,,,,,,,,,,,,,,,,,,,,,,,,s,1,0.450886011124,None,0,0.5,0.52,0.512493848801,0.00124096870422,0.450886011124,1,s,200.801683903,,,,,,,,,,,,,,,,,,,,,,,,,,,,,,,,,,,,,,,,,,,,,2015_Jun_17_2055,59.9714891554,LearningTask,1,555,
-200,q,200,,,,,,,,,,,,0,0,0,0,9,3,39,1,,,,,,,,,,,,,,,,,,,,,,,,,,,,,,,q,1,0.417793035507,None,0,4.0,0,0.511861801147,0.00121593475342,0.417793035507,1,q,203.802278996,,,,,,,,,,,,,,,,,,,,,,,,,,,,,,,,,,,,,,,,,,,,,2015_Jun_17_2055,59.9714891554,LearningTask,1,555,
-200,q,200,,,,,,,,,,,,0,0,0,0,10,0,40,1,,,,,,,,,,,,,,,,,,,,,,,,,,,,,,,q,1,0.43411397934,None,0,1.0,0,0.511510133743,0.00128102302551,[],0,None,206.801371813,0.0417230129242,0,0.514747858047,0.00114393234253,0.43411397934,1,q,209.80258584,,,,,,,,,,,,,,,,,,,,,,,,,,,,,,,,,,,,,2015_Jun_17_2055,59.9714891554,LearningTask,1,555,
200,w,200,,,,,,,,,,,,0,0,0,0,10,1,41,0,,,,,,,,,,,,,,,,,,,,,,,,,,,,,,,w,1,0.384299993515,None,0,0.5,0.61,0.510969877243,0.00138688087463,0.384299993515,1,w,212.802650928,,,,,,,,,,,,,,,,,,,,,,,,,,,,,,,,,,,,,,,,,,,,,2015_Jun_17_2055,59.9714891554,LearningTask,1,555,
200,w,200,,,,,,,,,,,,0,0,0,0,10,2,42,0,,,,,,,,,,,,,,,,,,,,,,,,,,,,,,,w,1,0.65123796463,None,0,4.0,4.01,0.511834859848,0.00119686126709,0.65123796463,1,w,215.80258894,,,,,,,,,,,,,,,,,,,,,,,,,,,,,,,,,,,,,,,,,,,,,2015_Jun_17_2055,59.9714891554,LearningTask,1,555,
-200,q,200,,,,,,,,,,,,0,0,0,0,10,3,43,1,,,,,,,,,,,,,,,,,,,,,,,,,,,,,,,q,1,0.400485992432,None,0,4.0,3.98,0.512136936188,0.00120687484741,0.400485992432,1,q,218.802984953,,,,,,,,,,,,,,,,,,,,,,,,,,,,,,,,,,,,,,,,,,,,,2015_Jun_17_2055,59.9714891554,LearningTask,1,555,
200,w,200,,,,,,,,,,,,0,0,0,0,11,0,44,0,,,,,,,,,,,,,,,,,,,,,,,,,,,,,,,w,1,0.351094007492,None,0,2.0,2.01,0.511948823929,0.00129294395447,0.351094007492,1,w,221.803157806,,,,,,,,,,,,,,,,,,,,,,,,,,,,,,,,,,,,,,,,,,,,,2015_Jun_17_2055,59.9714891554,LearningTask,1,555,
-200,a,-200,,,,,,,,,,,,0,0,0,0,11,1,45,3,,,,,,,,,,,,,,,,,,,,,,,,,,,,,,,a,1,0.434198141098,None,0,1.0,1.2,0.51231098175,0.00124979019165,0.434198141098,1,a,224.803725958,,,,,,,,,,,,,,,,,,,,,,,,,,,,,,,,,,,,,,,,,,,,,2015_Jun_17_2055,59.9714891554,LearningTask,1,555,
-200,q,200,,,,,,,,,,,,0,0,0,0,11,2,46,1,,,,,,,,,,,,,,,,,,,,,,,,,,,,,,,q,1,0.500962972641,None,0,2.0,1.9,0.511814117432,0.00120115280151,0.500962972641,1,q,227.803900003,,,,,,,,,,,,,,,,,,,,,,,,,,,,,,,,,,,,,,,,,,,,,2015_Jun_17_2055,59.9714891554,LearningTask,1,555,
200,s,-200,,,,,,,,,,,,0,0,0,0,11,3,47,2,,,,,,,,,,,,,,,,,,,,,,,,,,,,,,,s,1,0.500918865204,None,0,4.0,3.84,0.511838912964,0.00120902061462,0.500918865204,1,s,230.803864956,,,,,,,,,,,,,,,,,,,,,,,,,,,,,,,,,,,,,,,,,,,,,2015_Jun_17_2055,59.9714891554,LearningTask,1,555,
200,s,-200,,,,,,,,,,,,0,0,0,0,12,0,48,2,,,,,,,,,,,,,,,,,,,,,,,,,,,,,,,s,1,0.417885065079,None,0,4.0,3.93,0.511855840683,0.00126576423645,0.417885065079,1,s,233.804461956,,,,,,,,,,,,,,,,,,,,,,,,,,,,,,,,,,,,,,,,,,,,,2015_Jun_17_2055,59.9714891554,LearningTask,1,555,
-200,q,200,,,,,,,,,,,,0,0,0,0,12,1,49,1,,,,,,,,,,,,,,,,,,,,,,,,,,,,,,,q,1,0.384205102921,None,0,2.0,1.79,0.511332988739,0.00121283531189,0.384205102921,1,q,236.803459883,,,,,,,,,,,,,,,,,,,,,,,,,,,,,,,,,,,,,,,,,,,,,2015_Jun_17_2055,59.9714891554,LearningTask,1,555,
-200,q,200,,,,,,,,,,,,0,0,0,0,12,2,50,1,,,,,,,,,,,,,,,,,,,,,,,,,,,,,,,q,1,0.76739192009,None,0,4.0,0,0.513206005096,0.00107598304749,0.76739192009,1,q,239.804665804,,,,,,,,,,,,,,,,,,,,,,,,,,,,,,,,,,,,,,,,,,,,,2015_Jun_17_2055,59.9714891554,LearningTask,1,555,
200,s,-200,,,,,,,,,,,,0,0,0,0,12,3,51,2,,,,,,,,,,,,,,,,,,,,,,,,,,,,,,,s,1,0.501152038574,None,0,2.0,2.22,0.51199889183,0.00121283531189,0.501152038574,1,s,242.804724932,,,,,,,,,,,,,,,,,,,,,,,,,,,,,,,,,,,,,,,,,,,,,2015_Jun_17_2055,59.9714891554,LearningTask,1,555,
200,s,-200,,,,,,,,,,,,0,0,0,0,13,0,52,2,,,,,,,,,,,,,,,,,,,,,,,,,,,,,,,s,1,0.467782974243,None,0,4.0,0,0.511972904205,0.00122594833374,0.467782974243,1,s,245.804865837,,,,,,,,,,,,,,,,,,,,,,,,,,,,,,,,,,,,,,,,,,,,,2015_Jun_17_2055,59.9714891554,LearningTask,1,555,
-200,a,-200,,,,,,,,,,,,0,0,0,0,13,1,53,3,,,,,,,,,,,,,,,,,,,,,,,,,,,,,,,a,1,0.483882188797,None,0,1.0,1.12,0.512335062027,0.00124192237854,0.483882188797,1,a,248.805487871,,,,,,,,,,,,,,,,,,,,,,,,,,,,,,,,,,,,,,,,,,,,,2015_Jun_17_2055,59.9714891554,LearningTask,1,555,
200,s,-200,,,,,,,,,,,,0,0,0,0,13,2,54,2,,,,,,,,,,,,,,,,,,,,,,,,,,,,,,,s,1,0.48423910141,None,0,1.0,0.83,0.511741876602,0.00168704986572,0.48423910141,1,s,251.804345846,,,,,,,,,,,,,,,,,,,,,,,,,,,,,,,,,,,,,,,,,,,,,2015_Jun_17_2055,59.9714891554,LearningTask,1,555,
-200,q,200,,,,,,,,,,,,0,0,0,0,13,3,55,1,,,,,,,,,,,,,,,,,,,,,,,,,,,,,,,q,1,0.451107025146,None,0,2.0,0,0.51370382309,0.000988960266113,0.451107025146,1,q,254.805784941,,,,,,,,,,,,,,,,,,,,,,,,,,,,,,,,,,,,,,,,,,,,,2015_Jun_17_2055,59.9714891554,LearningTask,1,555,
200,s,-200,,,,,,,,,,,,0,0,0,0,14,0,56,2,,,,,,,,,,,,,,,,,,,,,,,,,,,,,,,s,1,0.401199102402,None,0,4.0,3.96,0.511471033096,0.0012538433075,0.401199102402,1,s,257.805171013,,,,,,,,,,,,,,,,,,,,,,,,,,,,,,,,,,,,,,,,,,,,,2015_Jun_17_2055,59.9714891554,LearningTask,1,555,
200,w,200,,,,,,,,,,,,0,0,0,0,14,1,57,0,,,,,,,,,,,,,,,,,,,,,,,,,,,,,,,w,1,0.367691040039,None,0,4.0,4.07,0.512906074524,0.00112295150757,0.367691040039,1,w,260.806311846,,,,,,,,,,,,,,,,,,,,,,,,,,,,,,,,,,,,,,,,,,,,,2015_Jun_17_2055,59.9714891554,LearningTask,1,555,
200,s,-200,,,,,,,,,,,,0,0,0,0,14,2,58,2,,,,,,,,,,,,,,,,,,,,,,,,,,,,,,,s,1,0.384268045425,None,0,0.5,0.42,0.511878967285,0.00121998786926,0.384268045425,1,s,263.806355953,,,,,,,,,,,,,,,,,,,,,,,,,,,,,,,,,,,,,,,,,,,,,2015_Jun_17_2055,59.9714891554,LearningTask,1,555,
-200,q,200,,,,,,,,,,,,0,0,0,0,14,3,59,1,,,,,,,,,,,,,,,,,,,,,,,,,,,,,,,q,1,0.41756606102,None,0,0.5,0.42,0.51223897934,0.00123190879822,[],0,None,266.806938887,0.141790151596,0.5,0.513386964798,0.00130009651184,0.41756606102,1,q,269.806810856,,,,,,,,,,,,,,,,,,,,,,,,,,,,,,,,,,,,,2015_Jun_17_2055,59.9714891554,LearningTask,1,555,
-200,a,-200,,,,,,,,,,,,0,0,0,0,15,0,60,3,,,,,,,,,,,,,,,,,,,,,,,,,,,,,,,a,1,0.466711044312,None,0,0.5,0.27,0.511993169785,0.00122117996216,0.466711044312,1,a,272.807036877,,,,,,,,,,,,,,,,,,,,,,,,,,,,,,,,,,,,,,,,,,,,,2015_Jun_17_2055,59.9714891554,LearningTask,1,555,
-200,a,-200,,,,,,,,,,,,0,0,0,0,15,1,61,3,,,,,,,,,,,,,,,,,,,,,,,,,,,,,,,a,1,0.417345046997,None,0,2.0,1.9,0.511576890945,0.00121998786926,0.417345046997,1,a,275.807065964,,,,,,,,,,,,,,,,,,,,,,,,,,,,,,,,,,,,,,,,,,,,,2015_Jun_17_2055,59.9714891554,LearningTask,1,555,
-200,a,-200,,,,,,,,,,,,0,0,0,0,15,2,62,3,,,,,,,,,,,,,,,,,,,,,,,,,,,,,,,a,1,0.484462022781,None,0,2.0,0,0.512210130692,0.00164604187012,0.484462022781,1,a,278.806584835,,,,,,,,,,,,,,,,,,,,,,,,,,,,,,,,,,,,,,,,,,,,,2015_Jun_17_2055,59.9714891554,LearningTask,1,555,
-200,q,200,,,,,,,,,,,,0,0,0,0,15,3,63,1,,,,,,,,,,,,,,,,,,,,,,,,,,,,,,,q,1,0.467725992203,None,0,0.5,0.58,0.51300406456,0.0011100769043,0.467725992203,1,q,281.807723999,,,,,,,,,,,,,,,,,,,,,,,,,,,,,,,,,,,,,,,,,,,,,2015_Jun_17_2055,59.9714891554,LearningTask,1,555,
200,w,200,,,,,,,,,,,,0,0,0,0,16,0,64,0,,,,,,,,,,,,,,,,,,,,,,,,,,,,,,,w,1,0.400058984756,None,0,2.0,0,0.511986017227,0.00123906135559,0.400058984756,1,w,284.807862997,,,,,,,,,,,,,,,,,,,,,,,,,,,,,,,,,,,,,,,,,,,,,2015_Jun_17_2055,59.9714891554,LearningTask,1,555,
200,w,200,,,,,,,,,,,,0,0,0,0,16,1,65,0,,,,,,,,,,,,,,,,,,,,,,,,,,,,,,,w,1,0.450949907303,None,0,0.5,0.7,0.511967182159,0.00131821632385,0.450949907303,1,w,287.808422804,,,,,,,,,,,,,,,,,,,,,,,,,,,,,,,,,,,,,,,,,,,,,2015_Jun_17_2055,59.9714891554,LearningTask,1,555,
-200,a,-200,,,,,,,,,,,,0,0,0,0,16,2,66,3,,,,,,,,,,,,,,,,,,,,,,,,,,,,,,,a,1,0.417496919632,None,0,1.0,0.92,0.511888027191,0.00120782852173,0.417496919632,1,a,290.808302879,,,,,,,,,,,,,,,,,,,,,,,,,,,,,,,,,,,,,,,,,,,,,2015_Jun_17_2055,59.9714891554,LearningTask,1,555,
200,s,-200,,,,,,,,,,,,0,0,0,0,16,3,67,2,,,,,,,,,,,,,,,,,,,,,,,,,,,,,,,s,1,0.317929029465,None,0,0.5,0,0.51197385788,0.00124597549438,0.317929029465,1,s,293.808710814,,,,,,,,,,,,,,,,,,,,,,,,,,,,,,,,,,,,,,,,,,,,,2015_Jun_17_2055,59.9714891554,LearningTask,1,555,
200,w,200,,,,,,,,,,,,0,0,0,0,17,0,68,0,,,,,,,,,,,,,,,,,,,,,,,,,,,,,,,w,1,0.350875139236,None,0,1.0,1.13,0.511736869812,0.00121593475342,0.350875139236,1,w,296.808837891,,,,,,,,,,,,,,,,,,,,,,,,,,,,,,,,,,,,,,,,,,,,,2015_Jun_17_2055,59.9714891554,LearningTask,1,555,
200,s,-200,,,,,,,,,,,,0,0,0,0,17,1,69,2,,,,,,,,,,,,,,,,,,,,,,,,,,,,,,,s,1,0.417747974396,None,0,0.5,0.47,0.512026071548,0.00121092796326,0.417747974396,1,s,299.8089118,,,,,,,,,,,,,,,,,,,,,,,,,,,,,,,,,,,,,,,,,,,,,2015_Jun_17_2055,59.9714891554,LearningTask,1,555,
200,w,200,,,,,,,,,,,,0,0,0,0,17,2,70,0,,,,,,,,,,,,,,,,,,,,,,,,,,,,,,,w,1,0.401242017746,None,0,1.0,0.9,0.511716127396,0.00122904777527,0.401242017746,1,w,302.809087992,,,,,,,,,,,,,,,,,,,,,,,,,,,,,,,,,,,,,,,,,,,,,2015_Jun_17_2055,59.9714891554,LearningTask,1,555,
200,w,200,,,,,,,,,,,,0,0,0,0,17,3,71,0,,,,,,,,,,,,,,,,,,,,,,,,,,,,,,,w,1,0.351135015488,None,0,2.0,1.85,0.511950016022,0.00129890441895,0.351135015488,1,w,305.809470892,,,,,,,,,,,,,,,,,,,,,,,,,,,,,,,,,,,,,,,,,,,,,2015_Jun_17_2055,59.9714891554,LearningTask,1,555,
-200,a,-200,,,,,,,,,,,,0,0,0,0,18,0,72,3,,,,,,,,,,,,,,,,,,,,,,,,,,,,,,,a,1,0.317517995834,None,0,0.5,0.5,0.511758089066,0.00123405456543,0.317517995834,1,a,308.809811831,,,,,,,,,,,,,,,,,,,,,,,,,,,,,,,,,,,,,,,,,,,,,2015_Jun_17_2055,59.9714891554,LearningTask,1,555,
-200,q,200,,,,,,,,,,,,0,0,0,0,18,1,73,1,,,,,,,,,,,,,,,,,,,,,,,,,,,,,,,q,1,0.350808858871,None,0,0.5,0.36,0.511531114578,0.0012481212616,0.350808858871,1,q,311.809929848,,,,,,,,,,,,,,,,,,,,,,,,,,,,,,,,,,,,,,,,,,,,,2015_Jun_17_2055,59.9714891554,LearningTask,1,555,
-200,a,-200,,,,,,,,,,,,0,0,0,0,18,2,74,3,,,,,,,,,,,,,,,,,,,,,,,,,,,,,,,a,1,0.384360074997,None,0,1.0,1.07,0.512125968933,0.0012321472168,0.384360074997,1,a,314.810504913,,,,,,,,,,,,,,,,,,,,,,,,,,,,,,,,,,,,,,,,,,,,,2015_Jun_17_2055,59.9714891554,LearningTask,1,555,
200,s,-200,,,,,,,,,,,,0,0,0,0,18,3,75,2,,,,,,,,,,,,,,,,,,,,,,,,,,,,,,,s,1,0.351083040237,None,0,0.5,0.37,0.511636972427,0.00123310089111,0.351083040237,1,s,317.810264826,,,,,,,,,,,,,,,,,,,,,,,,,,,,,,,,,,,,,,,,,,,,,2015_Jun_17_2055,59.9714891554,LearningTask,1,555,
-200,a,-200,,,,,,,,,,,,0,0,0,0,19,0,76,3,,,,,,,,,,,,,,,,,,,,,,,,,,,,,,,a,1,0.317528963089,None,0,2.0,1.96,0.512043952942,0.00123000144958,0.317528963089,1,a,320.81059289,,,,,,,,,,,,,,,,,,,,,,,,,,,,,,,,,,,,,,,,,,,,,2015_Jun_17_2055,59.9714891554,LearningTask,1,555,
200,s,-200,,,,,,,,,,,,0,0,0,0,19,1,77,2,,,,,,,,,,,,,,,,,,,,,,,,,,,,,,,s,1,0.350790023804,None,0,0.5,0.49,0.511554002762,0.00119400024414,0.350790023804,1,s,323.810575962,,,,,,,,,,,,,,,,,,,,,,,,,,,,,,,,,,,,,,,,,,,,,2015_Jun_17_2055,59.9714891554,LearningTask,1,555,
200,w,200,,,,,,,,,,,,0,0,0,0,19,2,78,0,,,,,,,,,,,,,,,,,,,,,,,,,,,,,,,w,1,0.333574056625,None,0,4.0,4.2,0.512391090393,0.00122094154358,0.333574056625,1,w,326.810163021,,,,,,,,,,,,,,,,,,,,,,,,,,,,,,,,,,,,,,,,,,,,,2015_Jun_17_2055,59.9714891554,LearningTask,1,555,
-200,a,-200,,,,,,,,,,,,0,0,0,0,19,3,79,3,,,,,,,,,,,,,,,,,,,,,,,,,,,,,,,a,1,0.283690929413,None,0,4.0,4.08,0.513316869736,0.00112104415894,0.283690929413,1,a,329.811105013,,,,,,,,,,,,,,,,,,,,,,,,,,,,,,,,,,,,,,,,,,,,,2015_Jun_17_2055,59.9714891554,LearningTask,1,555,
-200,a,-200,,,,,,,,,,,,0,0,0,0,20,0,80,3,,,,,,,,,,,,,,,,,,,,,,,,,,,,,,,a,1,0.267235040665,None,0,1.0,4.08,0.512026071548,0.00123000144958,0.35067486763,0,q,332.811761856,,0.96,0.513232946396,0.00154209136963,0.267235040665,1,a,335.811502934,,,,,,,,,,,,,,,,,,,,,,,,,,,,,,,,,,,,,2015_Jun_17_2055,59.9714891554,LearningTask,1,555,
-200,a,-200,,,,,,,,,,,,0,0,0,0,20,1,81,3,,,,,,,,,,,,,,,,,,,,,,,,,,,,,,,a,1,0.584475040436,None,0,4.0,3.76,0.512392997742,0.00123286247253,0.584475040436,1,a,338.812086821,,,,,,,,,,,,,,,,,,,,,,,,,,,,,,,,,,,,,,,,,,,,,2015_Jun_17_2055,59.9714891554,LearningTask,1,555,
-200,q,200,,,,,,,,,,,,0,0,0,0,20,2,82,1,,,,,,,,,,,,,,,,,,,,,,,,,,,,,,,q,1,0.534348964691,None,0,2.0,1.81,0.511104106903,0.00130391120911,0.534348964691,1,q,341.812045813,,,,,,,,,,,,,,,,,,,,,,,,,,,,,,,,,,,,,,,,,,,,,2015_Jun_17_2055,59.9714891554,LearningTask,1,555,
200,s,-200,,,,,,,,,,,,0,0,0,0,20,3,83,2,,,,,,,,,,,,,,,,,,,,,,,,,,,,,,,s,1,0.46791100502,None,0,4.0,0,0.512125968933,0.00122213363647,0.46791100502,1,s,344.812407017,,,,,,,,,,,,,,,,,,,,,,,,,,,,,,,,,,,,,,,,,,,,,2015_Jun_17_2055,59.9714891554,LearningTask,1,555,
-200,a,-200,,,,,,,,,,,,0,0,0,0,21,0,84,3,,,,,,,,,,,,,,,,,,,,,,,,,,,,,,,a,1,0.367575883865,None,0,4.0,4.18,0.511996030807,0.00122594833374,0.367575883865,1,a,347.81240201,,,,,,,,,,,,,,,,,,,,,,,,,,,,,,,,,,,,,,,,,,,,,2015_Jun_17_2055,59.9714891554,LearningTask,1,555,
-200,q,200,,,,,,,,,,,,0,0,0,0,21,1,85,1,,,,,,,,,,,,,,,,,,,,,,,,,,,,,,,q,1,0.451027870178,None,0,2.0,2.07,0.512131929398,0.00120878219604,0.451027870178,1,q,350.812748909,,,,,,,,,,,,,,,,,,,,,,,,,,,,,,,,,,,,,,,,,,,,,2015_Jun_17_2055,59.9714891554,LearningTask,1,555,
200,s,-200,,,,,,,,,,,,0,0,0,0,21,2,86,2,,,,,,,,,,,,,,,,,,,,,,,,,,,,,,,s,1,0.501044034958,None,0,1.0,0,0.512256860733,0.00121378898621,0.501044034958,1,s,353.813010931,,,,,,,,,,,,,,,,,,,,,,,,,,,,,,,,,,,,,,,,,,,,,2015_Jun_17_2055,59.9714891554,LearningTask,1,555,
200,s,-200,,,,,,,,,,,,0,0,0,0,21,3,87,2,,,,,,,,,,,,,,,,,,,,,,,,,,,,,,,s,1,0.401062011719,None,0,1.0,1.01,0.511537075043,0.0012218952179,0.401062011719,1,s,356.813299894,,,,,,,,,,,,,,,,,,,,,,,,,,,,,,,,,,,,,,,,,,,,,2015_Jun_17_2055,59.9714891554,LearningTask,1,555,
200,s,-200,,,,,,,,,,,,0,0,0,0,22,0,88,2,,,,,,,,,,,,,,,,,,,,,,,,,,,,,,,s,1,0.400768995285,None,0,4.0,4.1,0.512031078339,0.00121903419495,0.400768995285,1,s,359.812139988,,,,,,,,,,,,,,,,,,,,,,,,,,,,,,,,,,,,,,,,,,,,,2015_Jun_17_2055,59.9714891554,LearningTask,1,555,
-200,a,-200,,,,,,,,,,,,0,0,0,0,22,1,89,3,,,,,,,,,,,,,,,,,,,,,,,,,,,,,,,a,1,0.617842197418,None,0,2.0,4.1,0.513956069946,0.000899076461792,[],0,None,362.813565016,0.108315944672,2.21,0.513562917709,0.00126791000366,0.617842197418,1,a,365.813882828,,,,,,,,,,,,,,,,,,,,,,,,,,,,,,,,,,,,,2015_Jun_17_2055,59.9714891554,LearningTask,1,555,
200,s,-200,,,,,,,,,,,,0,0,0,0,22,2,90,2,,,,,,,,,,,,,,,,,,,,,,,,,,,,,,,s,1,0.317030906677,None,0,2.0,1.93,0.511698007584,0.00124001502991,0.317030906677,1,s,368.814512014,,,,,,,,,,,,,,,,,,,,,,,,,,,,,,,,,,,,,,,,,,,,,2015_Jun_17_2055,59.9714891554,LearningTask,1,555,
200,w,200,,,,,,,,,,,,0,0,0,0,22,3,91,0,,,,,,,,,,,,,,,,,,,,,,,,,,,,,,,w,1,0.350855112076,q,0,4.0,4.08,0.511551141739,0.00124621391296,0.350855112076,1,w,371.814267874,0.722001075745,,,,,,,,,,,,,,,,,,,,,,,,,,,,,,,,,,,,,,,,,,,,2015_Jun_17_2055,59.9714891554,LearningTask,1,555,
-200,a,-200,,,,,,,,,,,,0,0,0,0,23,0,92,3,,,,,,,,,,,,,,,,,,,,,,,,,,,,,,,a,1,0.350821018219,None,0,2.0,2.04,0.512212991714,0.00122404098511,0.350821018219,1,a,374.814546824,,,,,,,,,,,,,,,,,,,,,,,,,,,,,,,,,,,,,,,,,,,,,2015_Jun_17_2055,59.9714891554,LearningTask,1,555,
200,w,200,,,,,,,,,,,,0,0,0,0,23,1,93,0,,,,,,,,,,,,,,,,,,,,,,,,,,,,,,,w,1,0.384348869324,None,0,2.0,1.84,0.511934041977,0.00120806694031,0.384348869324,1,w,377.814889908,,,,,,,,,,,,,,,,,,,,,,,,,,,,,,,,,,,,,,,,,,,,,2015_Jun_17_2055,59.9714891554,LearningTask,1,555,
200,s,-200,,,,,,,,,,,,0,0,0,0,23,2,94,2,,,,,,,,,,,,,,,,,,,,,,,,,,,,,,,s,1,0.384449005127,None,0,1.0,1.11,0.512031078339,0.00122213363647,0.384449005127,1,s,380.81483984,,,,,,,,,,,,,,,,,,,,,,,,,,,,,,,,,,,,,,,,,,,,,2015_Jun_17_2055,59.9714891554,LearningTask,1,555,
-200,a,-200,,,,,,,,,,,,0,0,0,0,23,3,95,3,,,,,,,,,,,,,,,,,,,,,,,,,,,,,,,a,1,0.467849969864,None,0,0.5,0.74,0.512125015259,0.00124216079712,0.467849969864,1,a,383.815217018,,,,,,,,,,,,,,,,,,,,,,,,,,,,,,,,,,,,,,,,,,,,,2015_Jun_17_2055,59.9714891554,LearningTask,1,555,
-200,q,200,,,,,,,,,,,,0,0,0,0,24,0,96,1,,,,,,,,,,,,,,,,,,,,,,,,,,,,,,,q,1,0.400954008102,None,0,1.0,1.07,0.512112140656,0.00124502182007,0.400954008102,1,q,386.815213919,,,,,,,,,,,,,,,,,,,,,,,,,,,,,,,,,,,,,,,,,,,,,2015_Jun_17_2055,59.9714891554,LearningTask,1,555,
-200,q,200,,,,,,,,,,,,0,0,0,0,24,1,97,1,,,,,,,,,,,,,,,,,,,,,,,,,,,,,,,q,1,0.400823116302,None,0,1.0,1.24,0.512297868729,0.00125288963318,0.400823116302,1,q,389.815598011,,,,,,,,,,,,,,,,,,,,,,,,,,,,,,,,,,,,,,,,,,,,,2015_Jun_17_2055,59.9714891554,LearningTask,1,555,
200,s,-200,,,,,,,,,,,,0,0,0,0,24,2,98,2,,,,,,,,,,,,,,,,,,,,,,,,,,,,,,,s,1,0.384075880051,None,0,0.5,0.69,0.512112140656,0.00121307373047,0.384075880051,1,s,392.815824986,,,,,,,,,,,,,,,,,,,,,,,,,,,,,,,,,,,,,,,,,,,,,2015_Jun_17_2055,59.9714891554,LearningTask,1,555,
200,w,200,,,,,,,,,,,,0,0,0,0,24,3,99,0,,,,,,,,,,,,,,,,,,,,,,,,,,,,,,,w,1,0.434424877167,None,0,1.0,0.85,0.511992931366,0.00123691558838,0.434424877167,1,w,395.816109896,,,,,,,,,,,,,,,,,,,,,,,,,,,,,,,,,,,,,,,,,,,,,2015_Jun_17_2055,59.9714891554,LearningTask,1,555,
,,,,,,,,,,,,,,0,0,0,0,,,,,,,,,,,,,,,,,,,,,,,,,,,,,,,,,,,,,,,,,,,,,,,,,,,,,,,,9,32.1808338165,,,,,,,,,,,,,,,,,,,,,,,,,,,,,,,,,,,2015_Jun_17_2055,59.9714891554,LearningTask,1,555,
,,,m,0,200,,,,,,,,,,,,,,,,,,,,,,0,0,0,0,0,0,0,1,,,,,,,,,,,,,,,,,,,,,,,,,,,,,,,,,,,,,,,,,480.197585821,-1,go,circlecyan.gif,go,4.0,m,1,0.43430685997,None,0,0.00162196159363,0.503641843796,-1,483.205605984,,,,,,,,,,,,,,,,,,,,2015_Jun_17_2055,59.9714891554,LearningTask,1,555,
,,,z,0,-200,,,,,,,,,,,,,,,,,,,,,,0,0,0,0,0,1,1,0,,,,,,,,,,,,,,,,,,,,,,,,,,,,,,,,,,,,,,,,,483.20638299,-1,go,squaregray.gif,go,1.0,z,1,0.451178789139,None,0,0.00124907493591,0.51244020462,-1,486.20428896,,,,,,,,,,,,,,,,,,,,2015_Jun_17_2055,59.9714891554,LearningTask,1,555,
,,,z,0,-200,,,,,,,,,,,,,,,,,,,,,,0,0,0,0,1,0,2,0,,,,,,,,,,,,,,,,,,,,,,,,,,,,,,,,,,,,,,,,,486.204765797,-1,go,invertedtriangleblue.gif,go,0.5,z,1,0.367406845093,None,0,0.00112891197205,0.514549016953,-1,489.204777956,,,,,,,,,,,,,,,,,,,,2015_Jun_17_2055,59.9714891554,LearningTask,1,555,
,,,m,0,200,,,,,,,,,,,,,,,,,,,,,,0,0,0,0,1,1,3,1,,,,,,,,,,,,,,,,,,,,,,,,,,,,,,,,,,,,,,,,,489.205282927,-1,go,invertedtriangleblue.gif,go,0.5,m,1,0.667643785477,None,0,0.00117611885071,0.514519929886,-1,492.205459833,,,,,,,,,,,,,,,,,,,,2015_Jun_17_2055,59.9714891554,LearningTask,1,555,
,,,m,0,200,,,,,,,,,,,,,,,,,,,,,,0,0,0,0,2,0,4,1,,,,,,,,,,,,,,,,,,,,,,,,,,,,,,,,,,,,,,,,,492.206115961,0.25,stop,hexagonmagenta.gif,stop,0.5,None,0,,None,0,0.00127220153809,0.513482093811,0.3,495.206458807,0.763364076614,,,,,,,,,,,,,,,,,,,2015_Jun_17_2055,59.9714891554,LearningTask,1,555,
,,,z,0,-200,,,,,,,,,,,,,,,,,,,,,,0,0,0,0,2,1,5,0,,,,,,,,,,,,,,,,,,,,,,,,,,,,,,,,,,,,,,,,,495.207112789,-1,go,circlecyan.gif,go,4.0,z,1,0.43389582634,None,0,0.00126504898071,0.512749195099,-1,498.206360817,,,,,,,,,,,,,,,,,,,,2015_Jun_17_2055,59.9714891554,LearningTask,1,555,
,,,m,0,200,,,,,,,,,,,,,,,,,,,,,,0,0,0,0,3,0,6,1,,,,,,,,,,,,,,,,,,,,,,,,,,,,,,,,,,,,,,,,,498.207312822,-1,go,circlecyan.gif,go,4.0,m,1,0.417461872101,None,0,0.00123810768127,0.512526988983,-1,501.20619297,,,,,,,,,,,,,,,,,,,,2015_Jun_17_2055,59.9714891554,LearningTask,1,555,
,,,z,0,-200,,,,,,,,,,,,,,,,,,,,,,0,0,0,0,3,1,7,0,,,,,,,,,,,,,,,,,,,,,,,,,,,,,,,,,,,,,,,,,501.207119942,0.25,stop,hexagonmagenta.gif,stop,0.5,None,0,,None,0,0.00123286247253,0.513237953186,0.3,504.207144022,0.763321876526,,,,,,,,,,,,,,,,,,,2015_Jun_17_2055,59.9714891554,LearningTask,1,555,
,,,z,0,-200,,,,,,,,,,,,,,,,,,,,,,0,0,0,0,4,0,8,0,,,,,,,,,,,,,,,,,,,,,,,,,,,,,,,,,,,,,,,,,504.208094835,0.3,stop,hexagonmagenta.gif,stop,0.5,z,1,0.484220981598,None,0,0.00125598907471,0.512333869934,0.25,507.20695591,0.812519073486,,,,,,,,,,,,,,,,,,,2015_Jun_17_2055,59.9714891554,LearningTask,1,555,
,,,m,0,200,,,,,,,,,,,,,,,,,,,,,,0,0,0,0,4,1,9,1,,,,,,,,,,,,,,,,,,,,,,,,,,,,,,,,,,,,,,,,,507.207895994,0.3,stop,crossyellow.gif,stop,4.0,m,1,0.367353916168,None,0,0.00170493125916,0.51260304451,0.25,510.207571983,0.812532901764,,,,,,,,,,,,,,,,,,,2015_Jun_17_2055,59.9714891554,LearningTask,1,555,
,,,z,0,-200,,,,,,,,,,,,,,,,,,,,,,0,0,0,0,5,0,10,0,,,,,,,,,,,,,,,,,,,,,,,,,,,,,,,,,,,,,,,,,510.208297014,-1,go,invertedtriangleblue.gif,go,0.5,z,1,0.367423057556,None,0,0.00123620033264,0.512693166733,-1,513.207322836,,,,,,,,,,,,,,,,,,,,2015_Jun_17_2055,59.9714891554,LearningTask,1,555,
,,,z,0,-200,,,,,,,,,,,,,,,,,,,,,,0,0,0,0,5,1,11,0,,,,,,,,,,,,,,,,,,,,,,,,,,,,,,,,,,,,,,,,,513.208277941,-1,go,squaregray.gif,go,1.0,z,1,0.367609024048,None,0,0.00123286247253,0.512839078903,-1,516.207701921,,,,,,,,,,,,,,,,,,,,2015_Jun_17_2055,59.9714891554,LearningTask,1,555,
,,,m,0,200,,,,,,,,,,,,,,,,,,,,,,0,0,0,0,6,0,12,1,,,,,,,,,,,,,,,,,,,,,,,,,,,,,,,,,,,,,,,,,516.208869934,-1,go,diamondorange.gif,go,2.0,m,1,0.333965063095,None,0,0.00126194953918,0.512043952942,-1,519.207720995,,,,,,,,,,,,,,,,,,,,2015_Jun_17_2055,59.9714891554,LearningTask,1,555,
,,,m,0,200,,,,,,,,,,,,,,,,,,,,,,0,0,0,0,6,1,13,1,,,,,,,,,,,,,,,,,,,,,,,,,,,,,,,,,,,,,,,,,519.208661795,-1,go,squaregray.gif,go,1.0,m,1,0.400907039642,None,0,0.00122904777527,0.512809038162,-1,522.207834005,,,,,,,,,,,,,,,,,,,,2015_Jun_17_2055,59.9714891554,LearningTask,1,555,
,,,m,0,200,,,,,,,,,,,,,,,,,,,,,,0,0,0,0,7,0,14,1,,,,,,,,,,,,,,,,,,,,,,,,,,,,,,,,,,,,,,,,,522.208725929,-1,go,circlecyan.gif,go,4.0,m,1,0.351074934006,None,0,0.00129795074463,0.512951135635,-1,525.208356857,,,,,,,,,,,,,,,,,,,,2015_Jun_17_2055,59.9714891554,LearningTask,1,555,
,,,z,0,-200,,,,,,,,,,,,,,,,,,,,,,0,0,0,0,7,1,15,0,,,,,,,,,,,,,,,,,,,,,,,,,,,,,,,,,,,,,,,,,525.209302902,-1,go,squaregray.gif,go,1.0,z,1,0.417614936829,None,0,0.00122404098511,0.512704133987,-1,528.208531857,,,,,,,,,,,,,,,,,,,,2015_Jun_17_2055,59.9714891554,LearningTask,1,555,
,,,z,0,-200,,,,,,,,,,,,,,,,,,,,,,0,0,0,0,8,0,16,0,,,,,,,,,,,,,,,,,,,,,,,,,,,,,,,,,,,,,,,,,528.209219933,-1,go,trianglegreen.gif,stop,1.0,z,1,0.383496999741,None,0,0.00125002861023,0.513258934021,-1,531.208815813,,,,,,,,,,,,,,,,,,,,2015_Jun_17_2055,59.9714891554,LearningTask,1,555,
,,,z,0,-200,,,,,,,,,,,,,,,,,,,,,,0,0,0,0,8,1,17,0,,,,,,,,,,,,,,,,,,,,,,,,,,,,,,,,,,,,,,,,,531.209765911,0.25,stop,linewhite.gif,stop,2.0,z,1,0.484086990356,None,0,0.00125885009766,0.512702941895,0.2,534.208949804,0.762279033661,,,,,,,,,,,,,,,,,,,2015_Jun_17_2055,59.9714891554,LearningTask,1,555,
,,,m,0,200,,,,,,,,,,,,,,,,,,,,,,0,0,0,0,9,0,18,1,,,,,,,,,,,,,,,,,,,,,,,,,,,,,,,,,,,,,,,,,534.209883928,0.25,stop,trianglegreen.gif,stop,1.0,m,1,0.367527961731,None,0,0.00125288963318,0.512811899185,0.2,537.209684849,0.763015985489,,,,,,,,,,,,,,,,,,,2015_Jun_17_2055,59.9714891554,LearningTask,1,555,
,,,z,0,-200,,,,,,,,,,,,,,,,,,,,,,0,0,0,0,9,1,19,0,,,,,,,,,,,,,,,,,,,,,,,,,,,,,,,,,,,,,,,,,537.210477829,-1,go,circlecyan.gif,go,4.0,z,1,0.317430973053,None,0,0.00126218795776,0.512331008911,-1,540.209291935,,,,,,,,,,,,,,,,,,,,2015_Jun_17_2055,59.9714891554,LearningTask,1,555,
,,,z,0,-200,,,,,,,,,,,,,,,,,,,,,,0,0,0,0,10,0,20,0,,,,,,,,,,,,,,,,,,,,,,,,,,,,,,,,,,,,,,,,,540.210241795,-1,go,diamondorange.gif,go,2.0,z,1,0.400668859482,None,0,0.0012469291687,0.512628078461,-1,543.209263802,,,,,,,,,,,,,,,,,,,,2015_Jun_17_2055,59.9714891554,LearningTask,1,555,
,,,z,0,-200,,,,,,,,,,,,,,,,,,,,,,0,0,0,0,10,1,21,0,,,,,,,,,,,,,,,,,,,,,,,,,,,,,,,,,,,,,,,,,543.210070848,0.2,stop,linewhite.gif,stop,2.0,z,1,0.33425784111,None,0,0.00125098228455,0.513247966766,0.15,546.210042953,0.713428020477,,,,,,,,,,,,,,,,,,,2015_Jun_17_2055,59.9714891554,LearningTask,1,555,
,,,m,0,200,,,,,,,,,,,,,,,,,,,,,,0,0,0,0,11,0,22,1,,,,,,,,,,,,,,,,,,,,,,,,,,,,,,,,,,,,,,,,,546.210980892,0.2,stop,crossyellow.gif,stop,4.0,m,1,0.351059913635,None,0,0.00123691558838,0.512739896774,0.15,549.210333824,0.712887048721,,,,,,,,,,,,,,,,,,,2015_Jun_17_2055,59.9714891554,LearningTask,1,555,
,,,m,0,200,,,,,,,,,,,,,,,,,,,,,,0,0,0,0,11,1,23,1,,,,,,,,,,,,,,,,,,,,,,,,,,,,,,,,,,,,,,,,,549.211126804,-1,go,linewhite.gif,stop,2.0,m,1,0.733561992645,None,0,0.00154495239258,0.512914180756,-1,552.210156918,,,,,,,,,,,,,,,,,,,,2015_Jun_17_2055,59.9714891554,LearningTask,1,555,
,,,z,0,-200,,,,,,,,,,,,,,,,,,,,,,0,0,0,0,12,0,24,0,,,,,,,,,,,,,,,,,,,,,,,,,,,,,,,,,,,,,,,,,552.211120844,-1,go,invertedtriangleblue.gif,go,0.5,z,1,0.350770950317,None,0,0.00126314163208,0.513002157211,-1,555.210471869,,,,,,,,,,,,,,,,,,,,2015_Jun_17_2055,59.9714891554,LearningTask,1,555,
,,,m,0,200,,,,,,,,,,,,,,,,,,,,,,0,0,0,0,12,1,25,1,,,,,,,,,,,,,,,,,,,,,,,,,,,,,,,,,,,,,,,,,555.211231947,-1,go,diamondorange.gif,go,2.0,m,1,0.400689840317,None,0,0.00123620033264,0.513078212738,-1,558.210968018,,,,,,,,,,,,,,,,,,,,2015_Jun_17_2055,59.9714891554,LearningTask,1,555,
,,,m,0,200,,,,,,,,,,,,,,,,,,,,,,0,0,0,0,13,0,26,1,,,,,,,,,,,,,,,,,,,,,,,,,,,,,,,,,,,,,,,,,558.21180582,-1,go,invertedtriangleblue.gif,go,0.5,m,1,0.500987052917,None,0,0.00124406814575,0.512772083282,-1,561.21104002,,,,,,,,,,,,,,,,,,,,2015_Jun_17_2055,59.9714891554,LearningTask,1,555,
,,,m,0,200,,,,,,,,,,,,,,,,,,,,,,0,0,0,0,13,1,27,1,,,,,,,,,,,,,,,,,,,,,,,,,,,,,,,,,,,,,,,,,561.211844921,-1,go,diamondorange.gif,go,2.0,m,1,0.517578840256,None,0,0.00124502182007,0.512918949127,-1,564.210941792,,,,,,,,,,,,,,,,,,,,2015_Jun_17_2055,59.9714891554,LearningTask,1,555,
,,,z,0,-200,,,,,,,,,,,,,,,,,,,,,,0,0,0,0,14,0,28,0,,,,,,,,,,,,,,,,,,,,,,,,,,,,,,,,,,,,,,,,,564.211946964,-1,go,linewhite.gif,stop,2.0,z,1,0.433462142944,None,0,0.0012629032135,0.512830018997,-1,567.211242914,,,,,,,,,,,,,,,,,,,,2015_Jun_17_2055,59.9714891554,LearningTask,1,555,
,,,m,0,200,,,,,,,,,,,,,,,,,,,,,,0,0,0,0,14,1,29,1,,,,,,,,,,,,,,,,,,,,,,,,,,,,,,,,,,,,,,,,,567.212196827,0.15,stop,trianglegreen.gif,stop,1.0,None,0,,None,0,0.0012481212616,0.512934207916,0.2,570.212133884,0.66311621666,,,,,,,,,,,,,,,,,,,2015_Jun_17_2055,59.9714891554,LearningTask,1,555,
,,,z,0,-200,,,,,,,,,,,,,,,,,,,,,,0,0,0,0,15,0,30,0,,,,,,,,,,,,,,,,,,,,,,,,,,,,,,,,,,,,,,,,,570.213274002,-1,go,circlecyan.gif,go,4.0,z,1,0.500405073166,None,0,0.00125813484192,0.511907100677,-1,573.211684942,,,,,,,,,,,,,,,,,,,,2015_Jun_17_2055,59.9714891554,LearningTask,1,555,
,,,m,0,200,,,,,,,,,,,,,,,,,,,,,,0,0,0,0,15,1,31,1,,,,,,,,,,,,,,,,,,,,,,,,,,,,,,,,,,,,,,,,,573.212555885,-1,go,circlecyan.gif,go,4.0,m,1,0.53419303894,None,0,0.00141406059265,0.513161897659,-1,576.211898804,,,,,,,,,,,,,,,,,,,,2015_Jun_17_2055,59.9714891554,LearningTask,1,555,
,,,m,0,200,,,,,,,,,,,,,,,,,,,,,,0,0,0,0,16,0,32,1,,,,,,,,,,,,,,,,,,,,,,,,,,,,,,,,,,,,,,,,,576.212831974,0.2,stop,linewhite.gif,stop,2.0,None,0,,None,0,0.00133204460144,0.513123989105,0.25,579.21212697,0.712897062302,,,,,,,,,,,,,,,,,,,2015_Jun_17_2055,59.9714891554,LearningTask,1,555,
,,,z,0,-200,,,,,,,,,,,,,,,,,,,,,,0,0,0,0,16,1,33,0,,,,,,,,,,,,,,,,,,,,,,,,,,,,,,,,,,,,,,,,,579.212771893,-1,go,invertedtriangleblue.gif,go,0.5,z,1,0.584311008453,None,0,0.0012218952179,0.513179063797,-1,582.212409973,,,,,,,,,,,,,,,,,,,,2015_Jun_17_2055,59.9714891554,LearningTask,1,555,
,,,m,0,200,,,,,,,,,,,,,,,,,,,,,,0,0,0,0,17,0,34,1,,,,,,,,,,,,,,,,,,,,,,,,,,,,,,,,,,,,,,,,,582.213361979,-1,go,diamondorange.gif,go,2.0,m,1,0.55075097084,None,0,0.00123691558838,0.512881994247,-1,585.212884903,,,,,,,,,,,,,,,,,,,,2015_Jun_17_2055,59.9714891554,LearningTask,1,555,
,,,z,0,-200,,,,,,,,,,,,,,,,,,,,,,0,0,0,0,17,1,35,0,,,,,,,,,,,,,,,,,,,,,,,,,,,,,,,,,,,,,,,,,585.213644981,-1,go,invertedtriangleblue.gif,go,0.5,z,1,0.401036024094,None,0,0.0012731552124,0.512768030167,-1,588.212998867,,,,,,,,,,,,,,,,,,,,2015_Jun_17_2055,59.9714891554,LearningTask,1,555,
,,,,,,,,,,,,,,,,,,,,,,,,,,,,,,,,,,,,,,,,,,,,,,,,,,space,17.2974910736,,,,,,,,,,,,,,,,,,,,,,,,,,,,,,,,,,,,,,,,9,9.48308682442,,,,,,,,,,,,,,,,,2015_Jun_17_2055,59.9714891554,LearningTask,1,555,
,,,,,,,,,,,,,,,,,,,,,,,,,,,,,,,,,,,0,0,0,0,0,0,0,0,,,,,,,,,,,,,,,,,,,,,,,,,,,,,,,,,615.400569916,,,,,,,,,,,,,,621.180229902,,,,i,1.88324308395,2.88093709946,hexagonmagenta.gif,"[195, 78, 39, 156, 234, 117]",0.5,,,,,,,,,,,2015_Jun_17_2055,59.9714891554,LearningTask,1,555,
,,,,,,,,,,,,,,,,,,,,,,,,,,,,,,,,,,,0,0,0,0,1,0,1,0,,,,,,,,,,,,,,,,,,,,,,,,,,,,,,,,,621.182369947,,,,,,,,,,,,,,625.964215994,,,,u,1.38361907005,2.38312506676,invertedtriangleblue.gif,"[294, 98, 49, 245, 196, 147]",0.5,,,,,,,,,,,2015_Jun_17_2055,59.9714891554,LearningTask,1,555,
,,,,,,,,,,,,,,,,,,,,,,,,,,,,,,,,,,,0,0,0,0,2,0,2,0,,,,,,,,,,,,,,,,,,,,,,,,,,,,,,,,,625.965899944,,,,,,,,,,,,,,631.514442921,,,,t,1.76745700836,2.76701498032,diamondorange.gif,"[195, 117, 156, 234, 39, 78]",2.0,,,,,,,,,,,2015_Jun_17_2055,59.9714891554,LearningTask,1,555,
,,,,,,,,,,,,,,,,,,,,,,,,,,,,,,,,,,,0,0,0,0,3,0,3,0,,,,,,,,,,,,,,,,,,,,,,,,,,,,,,,,,631.516327858,,,,,,,,,,,,,,636.931410789,,,,o,1.70055103302,2.70047712326,squaregray.gif,"[49, 196, 98, 245, 294, 147]",1.0,,,,,,,,,,,2015_Jun_17_2055,59.9714891554,LearningTask,1,555,
,,,,,,,,,,,,,,,,,,,,,,,,,,,,,,,,,,,0,0,0,0,4,0,4,0,,,,,,,,,,,,,,,,,,,,,,,,,,,,,,,,,636.933086872,,,,,,,,,,,,,,641.781842947,,,,o,1.41647720337,2.41670393944,crossyellow.gif,"[44, 132, 220, 176, 88, 264]",4.0,,,,,,,,,,,2015_Jun_17_2055,59.9714891554,LearningTask,1,555,
,,,,,,,,,,,,,,,,,,,,,,,,,,,,,,,,,,,0,0,0,0,5,0,5,0,,,,,,,,,,,,,,,,,,,,,,,,,,,,,,,,,641.783504009,,,,,,,,,,,,,,647.532245874,,,,t,1.86705613136,2.86730599403,linewhite.gif,"[98, 147, 196, 49, 245, 294]",2.0,,,,,,,,,,,2015_Jun_17_2055,59.9714891554,LearningTask,1,555,
,,,,,,,,,,,,,,,,,,,,,,,,,,,,,,,,,,,0,0,0,0,6,0,6,0,,,,,,,,,,,,,,,,,,,,,,,,,,,,,,,,,647.533427,,,,,,,,,,,,,,653.249475002,,,,i,1.84998106956,2.85042214394,trianglegreen.gif,"[204, 136, 170, 68, 34, 102]",1.0,,,,,,,,,,,2015_Jun_17_2055,59.9714891554,LearningTask,1,555,
,,,,,,,,,,,,,,,,,,,,,,,,,,,,,,,,,,,0,0,0,0,7,0,7,0,,,,,,,,,,,,,,,,,,,,,,,,,,,,,,,,,653.251132011,,,,,,,,,,,,,,658.733240843,,,,i,1.73402500153,2.73435997963,diamondorange.gif,"[136, 170, 68, 102, 204, 34]",2.0,,,,,,,,,,,2015_Jun_17_2055,59.9714891554,LearningTask,1,555,
,,,,,,,,,,,,,,,,,,,,,,,,,,,,,,,,,,,0,0,0,0,8,0,8,0,,,,,,,,,,,,,,,,,,,,,,,,,,,,,,,,,658.734917879,,,,,,,,,,,,,,663.883543968,,,,y,1.56691002846,2.56465196609,circlecyan.gif,"[147, 196, 294, 98, 49, 245]",4.0,,,,,,,,,,,2015_Jun_17_2055,59.9714891554,LearningTask,1,555,
,,,,,,,,,,,,,,,,,,,,,,,,,,,,,,,,,,,0,0,0,0,9,0,9,0,,,,,,,,,,,,,,,,,,,,,,,,,,,,,,,,,663.885216951,,,,,,,,,,,,,,668.767148972,,,,o,1.43321990967,2.43300294876,diamondorange.gif,"[162, 216, 54, 108, 270, 324]",2.0,,,,,,,,,,,2015_Jun_17_2055,59.9714891554,LearningTask,1,555,
,,,,,,,,,,,,,,,,,,,,,,,,,,,,,,,,,,,0,0,0,0,10,0,10,0,,,,,,,,,,,,,,,,,,,,,,,,,,,,,,,,,668.769009829,,,,,,,,,,,,,,674.217633009,,,,t,1.71660614014,2.71679496765,trianglegreen.gif,"[117, 39, 156, 234, 195, 78]",1.0,,,,,,,,,,,2015_Jun_17_2055,59.9714891554,LearningTask,1,555,
,,,,,,,,,,,,,,,,,,,,,,,,,,,,,,,,,,,0,0,0,0,11,0,11,0,,,,,,,,,,,,,,,,,,,,,,,,,,,,,,,,,674.219290018,,,,,,,,,,,,,,678.467828989,,,,i,1.11738204956,2.11484980583,trianglegreen.gif,"[245, 196, 49, 147, 294, 98]",1.0,,,,,,,,,,,2015_Jun_17_2055,59.9714891554,LearningTask,1,555,
,,,,,,,,,,,,,,,,,,,,,,,,,,,,,,,,,,,0,0,0,0,12,0,12,0,,,,,,,,,,,,,,,,,,,,,,,,,,,,,,,,,678.469483852,,,,,,,,,,,,,,682.884907961,,,,t,1.20092201233,2.20123410225,linewhite.gif,"[195, 234, 39, 156, 117, 78]",2.0,,,,,,,,,,,2015_Jun_17_2055,59.9714891554,LearningTask,1,555,
,,,,,,,,,,,,,,,,,,,,,,,,,,,,,,,,,,,0,0,0,0,13,0,13,0,,,,,,,,,,,,,,,,,,,,,,,,,,,,,,,,,682.886592865,,,,,,,,,,,,,,687.335181952,,,,o,1.21737098694,2.21728587151,diamondorange.gif,"[176, 264, 220, 132, 88, 44]",2.0,,,,,,,,,,,2015_Jun_17_2055,59.9714891554,LearningTask,1,555,
,,,,,,,,,,,,,,,,,,,,,,,,,,,,,,,,,,,0,0,0,0,14,0,14,0,,,,,,,,,,,,,,,,,,,,,,,,,,,,,,,,,687.337409019,,,,,,,,,,,,,,692.019014835,,,,o,1.33397102356,2.33319592476,crossyellow.gif,"[176, 220, 88, 44, 132, 264]",4.0,,,,,,,,,,,2015_Jun_17_2055,59.9714891554,LearningTask,1,555,
,,,,,,,,,,,,,,,,,,,,,,,,,,,,,,,,,,,0,0,0,0,15,0,15,0,,,,,,,,,,,,,,,,,,,,,,,,,,,,,,,,,692.020783901,,,,,,,,,,,,,,696.802387953,,,,u,1.38368701935,2.38319301605,invertedtriangleblue.gif,"[220, 88, 132, 264, 44, 176]",0.5,,,,,,,,,,,2015_Jun_17_2055,59.9714891554,LearningTask,1,555,
,,,,,,,,,,,,,,,,,,,,,,,,,,,,,,,,,,,0,0,0,0,16,0,16,0,,,,,,,,,,,,,,,,,,,,,,,,,,,,,,,,,696.803315878,,,,,,,,,,,,,,700.952828884,,,,u,1.06732392311,2.07033491135,trianglegreen.gif,"[324, 270, 162, 216, 54, 108]",1.0,,,,,,,,,,,2015_Jun_17_2055,59.9714891554,LearningTask,1,555,
,,,,,,,,,,,,,,,,,,,,,,,,,,,,,,,,,,,0,0,0,0,17,0,17,0,,,,,,,,,,,,,,,,,,,,,,,,,,,,,,,,,700.954500914,,,,,,,,,,,,,,705.870052814,,,,y,1.45088481903,2.44484806061,circlecyan.gif,"[108, 162, 324, 270, 54, 216]",4.0,,,,,,,,,,,2015_Jun_17_2055,59.9714891554,LearningTask,1,555,
,,,,,,,,,,,,,,,,,,,,,,,,,,,,,,,,,,,0,0,0,0,18,0,18,0,,,,,,,,,,,,,,,,,,,,,,,,,,,,,,,,,705.87174201,,,,,,,,,,,,,,711.220477819,,,,t,1.6667611599,2.66620802879,linewhite.gif,"[102, 204, 170, 136, 34, 68]",2.0,,,,,,,,,,,2015_Jun_17_2055,59.9714891554,LearningTask,1,555,
,,,,,,,,,,,,,,,,,,,,,,,,,,,,,,,,,,,0,0,0,0,19,0,19,0,,,,,,,,,,,,,,,,,,,,,,,,,,,,,,,,,711.222287893,,,,,,,,,,,,,,715.837566853,,,,o,1.30098509789,2.30009508133,squaregray.gif,"[49, 147, 196, 98, 245, 294]",1.0,,,,,,,,,,,2015_Jun_17_2055,59.9714891554,LearningTask,1,555,
,,,,,,,,,,,,,,,,,,,,,,,,,,,,,,,,,,,,,,,,,,,,,,,,,,,,,,,,,,,,,,,,,,,,,,,,,,,,,,,,,,,,,,,,,,,,,,,,,,,9,18.7035942078,1.84,4.04,0.9,0,4.17,"[2.07, 4.25, 0, 2.21, 0.27, 1.24, 3.84, 0.74, 4.06, 1.99, 0.99, 3.83, 4.01, 0, 2.07, 0.27, 0, 2.25, 1.07, 0.5, 4.2, 2.01, 0, 0.52, 0.5, 0.42, 1.13, 0.36, 0.61, 1.93, 0.52, 0, 1.81, 1.11, 0, 3.98, 2.23, 0.85, 0, 0, 0, 1.01, 4.08, 4.08, 1.2, 2.04, 0.7, 0.58, 0.96, 0, 0.96, 0.92, 0.47, 1.13, 0, 1.07, 1.79, 0, 1.9, 3.93, 0, 0, 0, 1.23, 4.12, 1.85, 0.27, 0, 4.07, 0.49, 0, 1.12, 1.9, 0.86, 0.83, 4.18, 3.76, 0.89, 0.53, 0.69, 0, 0, 0, 1.96, 2.22, 3.96, 0.95, 1.2, 1.76, 0.45, 0.37, 0, 2.01, 4.1, 0.51]",9,5.17598104477,2015_Jun_17_2055,59.9714891554,LearningTask,1,555,
