xPos,corrAns,yPos,corrGoResp,yPosGoStim,xPosGoStim,pracTrials.thisRepN,pracTrials.thisTrialN,pracTrials.thisN,pracTrials.thisIndex,ReDoLoopPrac.thisRepN,ReDoLoopPrac.thisTrialN,ReDoLoopPrac.thisN,ReDoLoopPrac.thisIndex,ReDoLoopPrac.thisTrial,pracStopTrials.thisRepN,pracStopTrials.thisTrialN,pracStopTrials.thisN,pracStopTrials.thisIndex,Blocks.thisRepN,Blocks.thisTrialN,Blocks.thisN,Blocks.thisIndex,trials.thisRepN,trials.thisTrialN,trials.thisN,trials.thisIndex,ReDoLoopMain.thisRepN,ReDoLoopMain.thisTrialN,ReDoLoopMain.thisN,ReDoLoopMain.thisIndex,ReDoLoopMain.thisTrial,StopBlocks.thisRepN,StopBlocks.thisTrialN,StopBlocks.thisN,StopBlocks.thisIndex,StopBlocks.thisTrial,ok1.keys,ok1.rt,StartTrialTimeStamp,resp.keys,resp.corr,resp.rt,learningStimOnset,learningFixOnset,EndTrialTimeStamp,beginningSSD,trialType,goStim,goResp.keys,goResp.corr,goResp.rt,goTrailCountOutput,goCumRTOutput,goRTCountOutput,stopTrialCountOutput,stopSuccessCountOutput,omissionCountOutput,commissionCountOutput,fixStopOnset,goStimOnset,stopSignalOnset,key_resp_3.keys,key_resp_3.rt,computedRewardOutput,key_resp_7.keys,key_resp_7.rt,expName,gender (m/f),age,frameRate,session,date,participant,
,,,,,,,,,,,,,,,,,,,,,,,,,,,,,,,,,,,,,space,7.25597190857,,,,,,,,,,,,,,,,,,,,,,,,,,,,,LearningTask,,,60.001688051,3,2015_May_27_1625,5,
-200,q,200,,,,0,0,0,5,0,0,0,0,None,,,,,,,,,,,,,,,,,,,,,,,,,14.5279269218,q,1,0.367898225784,0.503851175308,0.00379109382629,17.5338821411,,,,,,,,,,,,,,,,,,,,,,LearningTask,,,60.001688051,3,2015_May_27_1625,5,
-200,q,200,,,,0,0,0,5,,,,,,,,,,,,,,,,,,,,,,,,,,,,,,,,,,,,,,,,,,,,,,,,,,,,,,,,,,LearningTask,,,60.001688051,3,2015_May_27_1625,5,
200,s,-200,,,,0,1,1,2,0,0,0,0,None,,,,,,,,,,,,,,,,,,,,,,,,,17.5604231358,s,1,0.483595848083,0.505227088928,0.00140500068665,20.5507481098,,,,,,,,,,,,,,,,,,,,,,LearningTask,,,60.001688051,3,2015_May_27_1625,5,
200,s,-200,,,,0,1,1,2,,,,,,,,,,,,,,,,,,,,,,,,,,,,,,,,,,,,,,,,,,,,,,,,,,,,,,,,,,LearningTask,,,60.001688051,3,2015_May_27_1625,5,
-200,q,200,,,,0,2,2,1,0,0,0,0,None,,,,,,,,,,,,,,,,,,,,,,,,,20.5884051323,q,1,0.417892932892,0.511086940765,0.00236797332764,23.5848491192,,,,,,,,,,,,,,,,,,,,,,LearningTask,,,60.001688051,3,2015_May_27_1625,5,
-200,q,200,,,,0,2,2,1,,,,,,,,,,,,,,,,,,,,,,,,,,,,,,,,,,,,,,,,,,,,,,,,,,,,,,,,,,LearningTask,,,60.001688051,3,2015_May_27_1625,5,
200,w,200,,,,0,3,3,8,0,0,0,0,None,,,,,,,,,,,,,,,,,,,,,,,,,23.6366801262,s,0,0.367063999176,0.513149023056,0.00152111053467,26.6352341175,,,,,,,,,,,,,,,,,,,,,,LearningTask,,,60.001688051,3,2015_May_27_1625,5,
200,w,200,,,,0,3,3,8,1,0,1,0,None,,,,,,,,,,,,,,,,,,,,,,,,,,q,0,0.717386960983,0.515381097794,0.00179505348206,29.6355481148,,,,,,,,,,,,,,,,,,,,,,LearningTask,,,60.001688051,3,2015_May_27_1625,5,
200,w,200,,,,0,3,3,8,2,0,2,0,None,,,,,,,,,,,,,,,,,,,,,,,,,,w,1,0.384337902069,0.515586853027,0.00171780586243,32.6358380318,,,,,,,,,,,,,,,,,,,,,,LearningTask,,,60.001688051,3,2015_May_27_1625,5,
200,w,200,,,,0,3,3,8,,,,,,,,,,,,,,,,,,,,,,,,,,,,,,,,,,,,,,,,,,,,,,,,,,,,,,,,,,LearningTask,,,60.001688051,3,2015_May_27_1625,5,
-200,q,200,,,,0,4,4,9,0,0,0,0,None,,,,,,,,,,,,,,,,,,,,,,,,,32.6889851093,None,0,,0.512278079987,0.000916004180908,35.6862449646,,,,,,,,,,,,,,,,,,,,,,LearningTask,,,60.001688051,3,2015_May_27_1625,5,
-200,q,200,,,,0,4,4,9,1,0,1,0,None,,,,,,,,,,,,,,,,,,,,,,,,,,None,0,,0.515915155411,0.000971078872681,38.6866760254,,,,,,,,,,,,,,,,,,,,,,LearningTask,,,60.001688051,3,2015_May_27_1625,5,
-200,q,200,,,,0,4,4,9,2,0,2,0,None,,,,,,,,,,,,,,,,,,,,,,,,,,None,0,,0.515648841858,0.00171399116516,41.687171936,,,,,,,,,,,,,,,,,,,,,,LearningTask,,,60.001688051,3,2015_May_27_1625,5,
-200,q,200,,,,0,4,4,9,3,0,3,0,None,,,,,,,,,,,,,,,,,,,,,,,,,,q,1,0.367666006088,0.515608787537,0.00171279907227,44.6875810623,,,,,,,,,,,,,,,,,,,,,,LearningTask,,,60.001688051,3,2015_May_27_1625,5,
-200,q,200,,,,0,4,4,9,,,,,,,,,,,,,,,,,,,,,,,,,,,,,,,,,,,,,,,,,,,,,,,,,,,,,,,,,,LearningTask,,,60.001688051,3,2015_May_27_1625,5,
200,w,200,,,,0,5,5,4,0,0,0,0,None,,,,,,,,,,,,,,,,,,,,,,,,,44.7470719814,w,1,0.534378051758,0.505695104599,0.00100207328796,47.7379639149,,,,,,,,,,,,,,,,,,,,,,LearningTask,,,60.001688051,3,2015_May_27_1625,5,
200,w,200,,,,0,5,5,4,,,,,,,,,,,,,,,,,,,,,,,,,,,,,,,,,,,,,,,,,,,,,,,,,,,,,,,,,,LearningTask,,,60.001688051,3,2015_May_27_1625,5,
-200,a,-200,,,,0,6,6,7,0,0,0,0,None,,,,,,,,,,,,,,,,,,,,,,,,,47.8107359409,a,1,0.384152889252,0.509318828583,0.00129890441895,50.8050739765,,,,,,,,,,,,,,,,,,,,,,LearningTask,,,60.001688051,3,2015_May_27_1625,5,
-200,a,-200,,,,0,6,6,7,,,,,,,,,,,,,,,,,,,,,,,,,,,,,,,,,,,,,,,,,,,,,,,,,,,,,,,,,,LearningTask,,,60.001688051,3,2015_May_27_1625,5,
-200,a,-200,,,,0,7,7,3,0,0,0,0,None,,,,,,,,,,,,,,,,,,,,,,,,,50.8833670616,None,0,,0.503699064255,0.00143194198608,53.8887369633,,,,,,,,,,,,,,,,,,,,,,LearningTask,,,60.001688051,3,2015_May_27_1625,5,
-200,a,-200,,,,0,7,7,3,1,0,1,0,None,,,,,,,,,,,,,,,,,,,,,,,,,,None,0,,0.516057014465,0.00100493431091,56.8894951344,,,,,,,,,,,,,,,,,,,,,,LearningTask,,,60.001688051,3,2015_May_27_1625,5,
-200,a,-200,,,,0,7,7,3,2,0,2,0,None,,,,,,,,,,,,,,,,,,,,,,,,,,None,0,,0.515314817429,0.00168085098267,59.8899700642,,,,,,,,,,,,,,,,,,,,,,LearningTask,,,60.001688051,3,2015_May_27_1625,5,
-200,a,-200,,,,0,7,7,3,3,0,3,0,None,,,,,,,,,,,,,,,,,,,,,,,,,,None,0,,0.515372991562,0.00157403945923,62.8901131153,,,,,,,,,,,,,,,,,,,,,,LearningTask,,,60.001688051,3,2015_May_27_1625,5,
-200,a,-200,,,,0,7,7,3,4,0,4,0,None,,,,,,,,,,,,,,,,,,,,,,,,,,None,0,,0.515512943268,0.00171494483948,65.890568018,,,,,,,,,,,,,,,,,,,,,,LearningTask,,,60.001688051,3,2015_May_27_1625,5,
-200,a,-200,,,,0,7,7,3,,,,,,,,,,,,,,,,,,,,,,,,,,,,,,,,,,,,,,,,,,,,,,,,,,,,,,,,,,LearningTask,,,60.001688051,3,2015_May_27_1625,5,
200,w,200,,,,0,8,8,0,0,0,0,0,None,,,,,,,,,,,,,,,,,,,,,,,,,65.9708900452,None,0,,0.501607179642,0.000910043716431,68.9743750095,,,,,,,,,,,,,,,,,,,,,,LearningTask,,,60.001688051,3,2015_May_27_1625,5,
200,w,200,,,,0,8,8,0,1,0,1,0,None,,,,,,,,,,,,,,,,,,,,,,,,,,None,0,,0.51580619812,0.00125813484192,71.9749441147,,,,,,,,,,,,,,,,,,,,,,LearningTask,,,60.001688051,3,2015_May_27_1625,5,
200,w,200,,,,0,8,8,0,2,0,2,0,None,,,,,,,,,,,,,,,,,,,,,,,,,,None,0,,0.515262126923,0.00177812576294,74.9750261307,,,,,,,,,,,,,,,,,,,,,,LearningTask,,,60.001688051,3,2015_May_27_1625,5,
200,w,200,,,,0,8,8,0,3,0,3,0,None,,,,,,,,,,,,,,,,,,,,,,,,,,None,0,,0.515784978867,0.00173687934875,77.9757049084,,,,,,,,,,,,,,,,,,,,,,LearningTask,,,60.001688051,3,2015_May_27_1625,5,
200,w,200,,,,0,8,8,0,4,0,4,0,None,,,,,,,,,,,,,,,,,,,,,,,,,,None,0,,0.515560865402,0.0017569065094,80.9760870934,,,,,,,,,,,,,,,,,,,,,,LearningTask,,,60.001688051,3,2015_May_27_1625,5,
200,w,200,,,,0,8,8,0,,,,,,,,,,,,,,,,,,,,,,,,,,,,,,,,,,,,,,,,,,,,,,,,,,,,,,,,,,LearningTask,,,60.001688051,3,2015_May_27_1625,5,
200,s,-200,,,,0,9,9,6,0,0,0,0,None,,,,,,,,,,,,,,,,,,,,,,,,,81.0641789436,None,0,,0.510577917099,0.000893831253052,84.0596690178,,,,,,,,,,,,,,,,,,,,,,LearningTask,,,60.001688051,3,2015_May_27_1625,5,
200,s,-200,,,,0,9,9,6,1,0,1,0,None,,,,,,,,,,,,,,,,,,,,,,,,,,None,0,,0.515684127808,0.00176906585693,87.060147047,,,,,,,,,,,,,,,,,,,,,,LearningTask,,,60.001688051,3,2015_May_27_1625,5,
200,s,-200,,,,0,9,9,6,2,0,2,0,None,,,,,,,,,,,,,,,,,,,,,,,,,,None,0,,0.515736103058,0.00171709060669,90.0607190132,,,,,,,,,,,,,,,,,,,,,,LearningTask,,,60.001688051,3,2015_May_27_1625,5,
200,s,-200,,,,0,9,9,6,3,0,3,0,None,,,,,,,,,,,,,,,,,,,,,,,,,,s,1,0.217761993408,0.515475988388,0.00175786018372,93.0612120628,,,,,,,,,,,,,,,,,,,,,,LearningTask,,,60.001688051,3,2015_May_27_1625,5,
200,s,-200,,,,0,9,9,6,,,,,,,,,,,,,,,,,,,,,,,,,,,,,,,,,,,,,,,,,,,,,,,,,,,,,,,,,,LearningTask,,,60.001688051,3,2015_May_27_1625,5,
,,,m,0,200,,,,,,,,,,0,0,0,1,,,,,,,,,,,,,,,,,,,,,94.3370499611,,,,,,97.3311491013,-1,go,linegray.gif,m,1,0.48428106308,1,0.48428106308,1,0,0,0,0,0.00198006629944,0.506447076797,,,,,,,LearningTask,,,60.001688051,3,2015_May_27_1625,5,
,,,m,0,200,,,,,,,,,,0,1,1,1,,,,,,,,,,,,,,,,,,,,,97.331977129,,,,,,100.330686092,0.25,stop,invertedtrianglemagenta.gif,None,0,,1,0.48428106308,1,1,1,0,0,0.00123190879822,0.512286901474,0.762372016907,,,,,,LearningTask,,,60.001688051,3,2015_May_27_1625,5,
,,,z,0,-200,,,,,,,,,,1,0,2,0,,,,,,,,,,,,,,,,,,,,,100.33146596,,,,,,103.331180096,0.25,stop,invertedtrianglemagenta.gif,z,1,0.767154932022,1,0.48428106308,1,2,1,0,0,0.00133800506592,0.513310909271,0.763329982758,,,,,,LearningTask,,,60.001688051,3,2015_May_27_1625,5,
,,,m,0,200,,,,,,,,,,1,1,3,1,,,,,,,,,,,,,,,,,,,,,103.332029104,,,,,,106.331396103,0.25,stop,crossblue.gif,z,0,0.750801086426,1,0.48428106308,1,3,1,0,0,0.00131177902222,0.512757778168,0.762797832489,,,,,,LearningTask,,,60.001688051,3,2015_May_27_1625,5,
,,,m,0,200,,,,,,,,,,2,0,4,1,,,,,,,,,,,,,,,,,,,,,106.332250118,,,,,,109.331949949,0.25,stop,crossblue.gif,m,1,0.534127950668,1,0.48428106308,1,4,1,0,0,0.00126004219055,0.513056993484,0.763126134872,,,,,,LearningTask,,,60.001688051,3,2015_May_27_1625,5,
,,,z,0,-200,,,,,,,,,,2,1,5,0,,,,,,,,,,,,,,,,,,,,,109.332808018,,,,,,112.332318068,0.25,stop,crossblue.gif,None,0,,1,0.48428106308,1,5,2,0,0,0.00134110450745,0.5130610466,0.762894153595,,,,,,LearningTask,,,60.001688051,3,2015_May_27_1625,5,
,,,z,0,-200,,,,,,,,,,3,0,6,0,,,,,,,,,,,,,,,,,,,,,112.333171129,,,,,,115.332816124,0.25,stop,crossblue.gif,None,0,,1,0.48428106308,1,6,3,0,0,0.00133609771729,0.512892961502,0.762892007828,,,,,,LearningTask,,,60.001688051,3,2015_May_27_1625,5,
,,,m,0,200,,,,,,,,,,3,1,7,1,,,,,,,,,,,,,,,,,,,,,115.333498001,,,,,,118.333121061,0.25,stop,invertedtrianglemagenta.gif,m,1,0.617135047913,1,0.48428106308,1,7,3,0,0,0.00124883651733,0.513469934464,0.763575792313,,,,,,LearningTask,,,60.001688051,3,2015_May_27_1625,5,
,,,z,0,-200,,,,,,,,,,4,0,8,0,,,,,,,,,,,,,,,,,,,,,118.333972931,,,,,,121.332760096,0.25,stop,circleyellow.gif,None,0,,1,0.48428106308,1,8,4,0,0,0.00136494636536,0.513086080551,0.763127088547,,,,,,LearningTask,,,60.001688051,3,2015_May_27_1625,5,
,,,z,0,-200,,,,,,,,,,4,1,9,0,,,,,,,,,,,,,,,,,,,,,121.333347082,,,,,,124.333832979,0.25,stop,invertedtrianglemagenta.gif,None,0,,1,0.48428106308,1,9,5,0,0,0.00120878219604,0.514447927475,0.764437913895,,,,,,LearningTask,,,60.001688051,3,2015_May_27_1625,5,
,,,,,,,,,,,,,,,,,,,,,,,,,,,,,,,,,,,,,,,,,,,,,,,,,,,,,,,,,,,,,,space,1.95793485641,,,,LearningTask,,,60.001688051,3,2015_May_27_1625,5,
,,,,,,,,,,,,,,,,,,,,,,,,,,,,,,,,,,,,,space,0.716412067413,,,,,,,,,,,,,,,,,,,,,,,,,,,,,LearningTask,,,60.001688051,3,2015_May_27_1625,5,
-200,q,200,,,,,,,,,,,,,,,,,0,0,0,0,0,0,0,1,0,0,0,0,None,,,,,,,,127.258243084,q,1,0.601057052612,0.506105899811,0.00113296508789,130.24951911,,,,,,,,,,,,,,,,,,,0.45,,,LearningTask,,,60.001688051,3,2015_May_27_1625,5,
-200,q,200,,,,,,,,,,,,,,,,,0,0,0,0,0,0,0,1,,,,,,,,,,,,,,,,,,,,,,,,,,,,,,,,,,,,,,,,,LearningTask,,,60.001688051,3,2015_May_27_1625,5,
200,w,200,,,,,,,,,,,,,,,,,0,0,0,0,0,1,1,0,0,0,0,0,None,,,,,,,,130.423257113,w,1,0.384553909302,0.507780075073,0.00150394439697,133.416898966,,,,,,,,,,,,,,,,,,,1.86,,,LearningTask,,,60.001688051,3,2015_May_27_1625,5,
200,w,200,,,,,,,,,,,,,,,,,0,0,0,0,0,1,1,0,,,,,,,,,,,,,,,,,,,,,,,,,,,,,,,,,,,,,,,,,LearningTask,,,60.001688051,3,2015_May_27_1625,5,
200,w,200,,,,,,,,,,,,,,,,,0,0,0,0,0,2,2,0,0,0,0,0,None,,,,,,,,133.596584082,w,1,0.367603063583,0.501966953278,0.000938892364502,136.600562096,,,,,,,,,,,,,,,,,,,1.97,,,LearningTask,,,60.001688051,3,2015_May_27_1625,5,
200,w,200,,,,,,,,,,,,,,,,,0,0,0,0,0,2,2,0,,,,,,,,,,,,,,,,,,,,,,,,,,,,,,,,,,,,,,,,,LearningTask,,,60.001688051,3,2015_May_27_1625,5,
-200,q,200,,,,,,,,,,,,,,,,,0,0,0,0,0,3,3,1,0,0,0,0,None,,,,,,,,136.784657955,q,1,0.334032058716,0.514528036118,0.000945806503296,139.784289122,,,,,,,,,,,,,,,,,,,1.8,,,LearningTask,,,60.001688051,3,2015_May_27_1625,5,
-200,q,200,,,,,,,,,,,,,,,,,0,0,0,0,0,3,3,1,,,,,,,,,,,,,,,,,,,,,,,,,,,,,,,,,,,,,,,,,LearningTask,,,60.001688051,3,2015_May_27_1625,5,
200,w,200,,,,,,,,,,,,,,,,,0,0,0,0,1,0,4,0,0,0,0,0,None,,,,,,,,139.975893974,a,0,0.567408800125,0.506998062134,0.000898122787476,142.968080044,,,,,,,,,,,,,,,,,,,2.18,,,LearningTask,,,60.001688051,3,2015_May_27_1625,5,
200,w,200,,,,,,,,,,,,,,,,,0,0,0,0,1,0,4,0,1,0,1,0,None,,,,,,,,,None,0,,0.515448093414,0.00176405906677,145.968513966,,,,,,,,,,,,,,,,,,,2.19,,,LearningTask,,,60.001688051,3,2015_May_27_1625,5,
200,w,200,,,,,,,,,,,,,,,,,0,0,0,0,1,0,4,0,2,0,2,0,None,,,,,,,,,q,0,0.41761302948,0.515355110168,0.00175499916077,148.968986034,,,,,,,,,,,,,,,,,,,1.81,,,LearningTask,,,60.001688051,3,2015_May_27_1625,5,
200,w,200,,,,,,,,,,,,,,,,,0,0,0,0,1,0,4,0,3,0,3,0,None,,,,,,,,,None,0,,0.515377044678,0.00155782699585,151.969308138,,,,,,,,,,,,,,,,,,,2.19,,,LearningTask,,,60.001688051,3,2015_May_27_1625,5,
200,w,200,,,,,,,,,,,,,,,,,0,0,0,0,1,0,4,0,4,0,4,0,None,,,,,,,,,None,0,,0.515497922897,0.00159502029419,154.970050097,,,,,,,,,,,,,,,,,,,1.96,,,LearningTask,,,60.001688051,3,2015_May_27_1625,5,
200,w,200,,,,,,,,,,,,,,,,,0,0,0,0,1,0,4,0,,,,,,,,,,,,,,,,,,,,,,,,,,,,,,,,,,,,,,,,,LearningTask,,,60.001688051,3,2015_May_27_1625,5,
200,s,-200,,,,,,,,,,,,,,,,,0,0,0,0,1,1,5,2,0,0,0,0,None,,,,,,,,155.222856045,None,0,,0.512059926987,0.000977039337158,158.220170021,,,,,,,,,,,,,,,,,,,1.05,,,LearningTask,,,60.001688051,3,2015_May_27_1625,5,
200,s,-200,,,,,,,,,,,,,,,,,0,0,0,0,1,1,5,2,1,0,1,0,None,,,,,,,,,s,1,0.384394884109,0.515498161316,0.00174903869629,161.220680952,,,,,,,,,,,,,,,,,,,1.13,,,LearningTask,,,60.001688051,3,2015_May_27_1625,5,
200,s,-200,,,,,,,,,,,,,,,,,0,0,0,0,1,1,5,2,,,,,,,,,,,,,,,,,,,,,,,,,,,,,,,,,,,,,,,,,LearningTask,,,60.001688051,3,2015_May_27_1625,5,
-200,a,-200,,,,,,,,,,,,,,,,,0,0,0,0,1,2,6,3,0,0,0,0,None,,,,,,,,161.436268091,None,0,,0.516160964966,0.000949859619141,164.437886953,,,,,,,,,,,,,,,,,,,3.91,,,LearningTask,,,60.001688051,3,2015_May_27_1625,5,
-200,a,-200,,,,,,,,,,,,,,,,,0,0,0,0,1,2,6,3,1,0,1,0,None,,,,,,,,,None,0,,0.515199899673,0.00156283378601,167.438169956,,,,,,,,,,,,,,,,,,,3.96,,,LearningTask,,,60.001688051,3,2015_May_27_1625,5,
-200,a,-200,,,,,,,,,,,,,,,,,0,0,0,0,1,2,6,3,2,0,2,0,None,,,,,,,,,a,1,0.383538961411,0.515648126602,0.00170707702637,170.438565016,,,,,,,,,,,,,,,,,,,4.23,,,LearningTask,,,60.001688051,3,2015_May_27_1625,5,
-200,a,-200,,,,,,,,,,,,,,,,,0,0,0,0,1,2,6,3,,,,,,,,,,,,,,,,,,,,,,,,,,,,,,,,,,,,,,,,,LearningTask,,,60.001688051,3,2015_May_27_1625,5,
-200,q,200,,,,,,,,,,,,,,,,,0,0,0,0,1,3,7,1,0,0,0,0,None,,,,,,,,170.662349939,q,1,0.500923871994,0.508223056793,0.000951051712036,173.655632973,,,,,,,,,,,,,,,,,,,0.29,,,LearningTask,,,60.001688051,3,2015_May_27_1625,5,
-200,q,200,,,,,,,,,,,,,,,,,0,0,0,0,1,3,7,1,,,,,,,,,,,,,,,,,,,,,,,,,,,,,,,,,,,,,,,,,LearningTask,,,60.001688051,3,2015_May_27_1625,5,
200,w,200,,,,,,,,,,,,,,,,,0,0,0,0,2,0,8,0,0,0,0,0,None,,,,,,,,173.878099918,None,0,,0.509538888931,0.000931024551392,176.872865915,,,,,,,,,,,,,,,,,,,3.99,,,LearningTask,,,60.001688051,3,2015_May_27_1625,5,
200,w,200,,,,,,,,,,,,,,,,,0,0,0,0,2,0,8,0,1,0,1,0,None,,,,,,,,,None,0,,0.515426874161,0.00181579589844,179.873501062,,,,,,,,,,,,,,,,,,,3.89,,,LearningTask,,,60.001688051,3,2015_May_27_1625,5,
200,w,200,,,,,,,,,,,,,,,,,0,0,0,0,2,0,8,0,2,0,2,0,None,,,,,,,,,None,0,,0.515171051025,0.00175595283508,182.873748064,,,,,,,,,,,,,,,,,,,3.81,,,LearningTask,,,60.001688051,3,2015_May_27_1625,5,
200,w,200,,,,,,,,,,,,,,,,,0,0,0,0,2,0,8,0,3,0,3,0,None,,,,,,,,,w,1,0.334029912949,0.515468835831,0.00165796279907,185.874181032,,,,,,,,,,,,,,,,,,,4.05,,,LearningTask,,,60.001688051,3,2015_May_27_1625,5,
200,w,200,,,,,,,,,,,,,,,,,0,0,0,0,2,0,8,0,,,,,,,,,,,,,,,,,,,,,,,,,,,,,,,,,,,,,,,,,LearningTask,,,60.001688051,3,2015_May_27_1625,5,
200,s,-200,,,,,,,,,,,,,,,,,0,0,0,0,2,1,9,2,0,0,0,0,None,,,,,,,,186.111246109,s,1,0.600980043411,0.511168956757,0.000975847244263,189.107967138,,,,,,,,,,,,,,,,,,,0.36,,,LearningTask,,,60.001688051,3,2015_May_27_1625,5,
200,s,-200,,,,,,,,,,,,,,,,,0,0,0,0,2,1,9,2,,,,,,,,,,,,,,,,,,,,,,,,,,,,,,,,,,,,,,,,,LearningTask,,,60.001688051,3,2015_May_27_1625,5,
200,w,200,,,,,,,,,,,,,,,,,0,0,0,0,2,2,10,0,0,0,0,0,None,,,,,,,,189.375778913,w,1,0.817615032196,0.513988018036,0.000901937484741,192.374944925,,,,,,,,,,,,,,,,,,,2.1,,,LearningTask,,,60.001688051,3,2015_May_27_1625,5,
200,w,200,,,,,,,,,,,,,,,,,0,0,0,0,2,2,10,0,,,,,,,,,,,,,,,,,,,,,,,,,,,,,,,,,,,,,,,,,LearningTask,,,60.001688051,3,2015_May_27_1625,5,
200,w,200,,,,,,,,,,,,,,,,,0,0,0,0,2,3,11,0,0,0,0,0,None,,,,,,,,192.627111912,None,0,,0.513122081757,0.000918865203857,195.625688076,,,,,,,,,,,,,,,,,,,3.88,,,LearningTask,,,60.001688051,3,2015_May_27_1625,5,
200,w,200,,,,,,,,,,,,,,,,,0,0,0,0,2,3,11,0,1,0,1,0,None,,,,,,,,,None,0,,0.515173912048,0.0017728805542,198.625808001,,,,,,,,,,,,,,,,,,,4.23,,,LearningTask,,,60.001688051,3,2015_May_27_1625,5,
200,w,200,,,,,,,,,,,,,,,,,0,0,0,0,2,3,11,0,2,0,2,0,None,,,,,,,,,None,0,,0.515407085419,0.0017511844635,201.626248121,,,,,,,,,,,,,,,,,,,4.06,,,LearningTask,,,60.001688051,3,2015_May_27_1625,5,
200,w,200,,,,,,,,,,,,,,,,,0,0,0,0,2,3,11,0,3,0,3,0,None,,,,,,,,,None,0,,0.515442848206,0.00168585777283,204.626733065,,,,,,,,,,,,,,,,,,,4.23,,,LearningTask,,,60.001688051,3,2015_May_27_1625,5,
200,w,200,,,,,,,,,,,,,,,,,0,0,0,0,2,3,11,0,4,0,4,0,None,,,,,,,,,None,0,,0.515476942062,0.00175595283508,207.627056122,,,,,,,,,,,,,,,,,,,3.99,,,LearningTask,,,60.001688051,3,2015_May_27_1625,5,
200,w,200,,,,,,,,,,,,,,,,,0,0,0,0,2,3,11,0,,,,,,,,,,,,,,,,,,,,,,,,,,,,,,,,,,,,,,,,,LearningTask,,,60.001688051,3,2015_May_27_1625,5,
200,w,200,,,,,,,,,,,,,,,,,0,0,0,0,3,0,12,0,0,0,0,0,None,,,,,,,,207.882723093,None,0,,0.509558916092,0.00101900100708,210.877658129,,,,,,,,,,,,,,,,,,,0.54,,,LearningTask,,,60.001688051,3,2015_May_27_1625,5,
200,w,200,,,,,,,,,,,,,,,,,0,0,0,0,3,0,12,0,1,0,1,0,None,,,,,,,,,None,0,,0.515362977982,0.00148701667786,213.878268957,,,,,,,,,,,,,,,,,,,0.34,,,LearningTask,,,60.001688051,3,2015_May_27_1625,5,
200,w,200,,,,,,,,,,,,,,,,,0,0,0,0,3,0,12,0,2,0,2,0,None,,,,,,,,,None,0,,0.515265226364,0.00178408622742,216.878351927,,,,,,,,,,,,,,,,,,,0.65,,,LearningTask,,,60.001688051,3,2015_May_27_1625,5,
200,w,200,,,,,,,,,,,,,,,,,0,0,0,0,3,0,12,0,3,0,3,0,None,,,,,,,,,None,0,,0.516120910645,0.00100994110107,219.878890991,,,,,,,,,,,,,,,,,,,0.32,,,LearningTask,,,60.001688051,3,2015_May_27_1625,5,
200,w,200,,,,,,,,,,,,,,,,,0,0,0,0,3,0,12,0,4,0,4,0,None,,,,,,,,,None,0,,0.51596903801,0.00126600265503,222.879389048,,,,,,,,,,,,,,,,,,,0.49,,,LearningTask,,,60.001688051,3,2015_May_27_1625,5,
200,w,200,,,,,,,,,,,,,,,,,0,0,0,0,3,0,12,0,,,,,,,,,,,,,,,,,,,,,,,,,,,,,,,,,,,,,,,,,LearningTask,,,60.001688051,3,2015_May_27_1625,5,
200,s,-200,,,,,,,,,,,,,,,,,0,0,0,0,3,1,13,2,0,0,0,0,None,,,,,,,,223.14547801,None,0,,0.515838861465,0.000933885574341,226.146081924,,,,,,,,,,,,,,,,,,,2.02,,,LearningTask,,,60.001688051,3,2015_May_27_1625,5,
200,s,-200,,,,,,,,,,,,,,,,,0,0,0,0,3,1,13,2,1,0,1,0,None,,,,,,,,,None,0,,0.515882968903,0.0012800693512,229.146778107,,,,,,,,,,,,,,,,,,,2.17,,,LearningTask,,,60.001688051,3,2015_May_27_1625,5,
200,s,-200,,,,,,,,,,,,,,,,,0,0,0,0,3,1,13,2,2,0,2,0,None,,,,,,,,,None,0,,0.515441894531,0.00173997879028,232.147105932,,,,,,,,,,,,,,,,,,,2.02,,,LearningTask,,,60.001688051,3,2015_May_27_1625,5,
200,s,-200,,,,,,,,,,,,,,,,,0,0,0,0,3,1,13,2,3,0,3,0,None,,,,,,,,,None,0,,0.515520095825,0.00167107582092,235.147489071,,,,,,,,,,,,,,,,,,,2.25,,,LearningTask,,,60.001688051,3,2015_May_27_1625,5,
200,s,-200,,,,,,,,,,,,,,,,,0,0,0,0,3,1,13,2,4,0,4,0,None,,,,,,,,,None,0,,0.515498876572,0.0015389919281,238.148118019,,,,,,,,,,,,,,,,,,,2.04,,,LearningTask,,,60.001688051,3,2015_May_27_1625,5,
200,s,-200,,,,,,,,,,,,,,,,,0,0,0,0,3,1,13,2,,,,,,,,,,,,,,,,,,,,,,,,,,,,,,,,,,,,,,,,,LearningTask,,,60.001688051,3,2015_May_27_1625,5,
-200,q,200,,,,,,,,,,,,,,,,,0,0,0,0,3,2,14,1,0,0,0,0,None,,,,,,,,238.435250998,q,1,0.400707006454,0.511255979538,0.00163006782532,241.431656122,,,,,,,,,,,,,,,,,,,0.83,,,LearningTask,,,60.001688051,3,2015_May_27_1625,5,
-200,q,200,,,,,,,,,,,,,,,,,0,0,0,0,3,2,14,1,,,,,,,,,,,,,,,,,,,,,,,,,,,,,,,,,,,,,,,,,LearningTask,,,60.001688051,3,2015_May_27_1625,5,
-200,q,200,,,,,,,,,,,,,,,,,0,0,0,0,3,3,15,1,0,0,0,0,None,,,,,,,,241.750126123,q,1,0.384152889252,0.513756036758,0.000967025756836,244.749108076,,,,,,,,,,,,,,,,,,,1.07,,,LearningTask,,,60.001688051,3,2015_May_27_1625,5,
-200,q,200,,,,,,,,,,,,,,,,,0,0,0,0,3,3,15,1,,,,,,,,,,,,,,,,,,,,,,,,,,,,,,,,,,,,,,,,,LearningTask,,,60.001688051,3,2015_May_27_1625,5,
-200,q,200,,,,,,,,,,,,,,,,,0,0,0,0,4,0,16,1,0,0,0,0,None,,,,,,,,245.036778927,q,1,0.400851011276,0.510803937912,0.00092601776123,248.032781124,,,,,,,,,,,,,,,,,,,0.31,,,LearningTask,,,60.001688051,3,2015_May_27_1625,5,
-200,q,200,,,,,,,,,,,,,,,,,0,0,0,0,4,0,16,1,,,,,,,,,,,,,,,,,,,,,,,,,,,,,,,,,,,,,,,,,LearningTask,,,60.001688051,3,2015_May_27_1625,5,
-200,q,200,,,,,,,,,,,,,,,,,0,0,0,0,4,1,17,1,0,0,0,0,None,,,,,,,,248.332109928,q,1,0.617645978928,0.515825033188,0.00102186203003,251.333176136,,,,,,,,,,,,,,,,,,,0.76,,,LearningTask,,,60.001688051,3,2015_May_27_1625,5,
-200,q,200,,,,,,,,,,,,,,,,,0,0,0,0,4,1,17,1,,,,,,,,,,,,,,,,,,,,,,,,,,,,,,,,,,,,,,,,,LearningTask,,,60.001688051,3,2015_May_27_1625,5,
200,s,-200,,,,,,,,,,,,,,,,,0,0,0,0,4,2,18,2,0,0,0,0,None,,,,,,,,251.663414955,s,1,0.434339046478,0.501725912094,0.00118613243103,254.666872025,,,,,,,,,,,,,,,,,,,0.28,,,LearningTask,,,60.001688051,3,2015_May_27_1625,5,
200,s,-200,,,,,,,,,,,,,,,,,0,0,0,0,4,2,18,2,,,,,,,,,,,,,,,,,,,,,,,,,,,,,,,,,,,,,,,,,LearningTask,,,60.001688051,3,2015_May_27_1625,5,
200,w,200,,,,,,,,,,,,,,,,,0,0,0,0,4,3,19,0,0,0,0,0,None,,,,,,,,255.014665127,w,1,0.500895023346,0.500920057297,0.000993013381958,258.017614126,,,,,,,,,,,,,,,,,,,4.17,,,LearningTask,,,60.001688051,3,2015_May_27_1625,5,
200,w,200,,,,,,,,,,,,,,,,,0,0,0,0,4,3,19,0,,,,,,,,,,,,,,,,,,,,,,,,,,,,,,,,,,,,,,,,,LearningTask,,,60.001688051,3,2015_May_27_1625,5,
-200,q,200,,,,,,,,,,,,,,,,,0,0,0,0,5,0,20,1,0,0,0,0,None,,,,,,,,258.335201979,q,1,0.401051044464,0.513957977295,0.00119090080261,261.334826946,,,,,,,,,,,,,,,,,,,0.83,,,LearningTask,,,60.001688051,3,2015_May_27_1625,5,
-200,q,200,,,,,,,,,,,,,,,,,0,0,0,0,5,0,20,1,,,,,,,,,,,,,,,,,,,,,,,,,,,,,,,,,,,,,,,,,LearningTask,,,60.001688051,3,2015_May_27_1625,5,
200,w,200,,,,,,,,,,,,,,,,,0,0,0,0,5,1,21,0,0,0,0,0,None,,,,,,,,261.670563936,w,1,0.384107112885,0.512531042099,0.00108003616333,264.66863203,,,,,,,,,,,,,,,,,,,1.19,,,LearningTask,,,60.001688051,3,2015_May_27_1625,5,
200,w,200,,,,,,,,,,,,,,,,,0,0,0,0,5,1,21,0,,,,,,,,,,,,,,,,,,,,,,,,,,,,,,,,,,,,,,,,,LearningTask,,,60.001688051,3,2015_May_27_1625,5,
200,s,-200,,,,,,,,,,,,,,,,,0,0,0,0,5,2,22,2,0,0,0,0,None,,,,,,,,264.994991064,s,1,0.417615890503,0.50546002388,0.000923156738281,267.98555398,,,,,,,,,,,,,,,,,,,0.71,,,LearningTask,,,60.001688051,3,2015_May_27_1625,5,
200,s,-200,,,,,,,,,,,,,,,,,0,0,0,0,5,2,22,2,,,,,,,,,,,,,,,,,,,,,,,,,,,,,,,,,,,,,,,,,LearningTask,,,60.001688051,3,2015_May_27_1625,5,
-200,q,200,,,,,,,,,,,,,,,,,0,0,0,0,5,3,23,1,0,0,0,0,None,,,,,,,,268.364454031,q,1,0.784465789795,0.5030169487,0.000923871994019,271.369308949,,,,,,,,,,,,,,,,,,,2.21,,,LearningTask,,,60.001688051,3,2015_May_27_1625,5,
-200,q,200,,,,,,,,,,,,,,,,,0,0,0,0,5,3,23,1,,,,,,,,,,,,,,,,,,,,,,,,,,,,,,,,,,,,,,,,,LearningTask,,,60.001688051,3,2015_May_27_1625,5,
200,s,-200,,,,,,,,,,,,,,,,,0,0,0,0,6,0,24,2,0,0,0,0,None,,,,,,,,271.717554092,s,1,0.55074596405,0.500468969345,0.000956058502197,274.719711065,,,,,,,,,,,,,,,,,,,1.07,,,LearningTask,,,60.001688051,3,2015_May_27_1625,5,
200,s,-200,,,,,,,,,,,,,,,,,0,0,0,0,6,0,24,2,,,,,,,,,,,,,,,,,,,,,,,,,,,,,,,,,,,,,,,,,LearningTask,,,60.001688051,3,2015_May_27_1625,5,
200,s,-200,,,,,,,,,,,,,,,,,0,0,0,0,6,1,25,2,0,0,0,0,None,,,,,,,,275.075864077,s,1,0.534417867661,0.509104013443,0.000926971435547,278.070276976,,,,,,,,,,,,,,,,,,,0.26,,,LearningTask,,,60.001688051,3,2015_May_27_1625,5,
200,s,-200,,,,,,,,,,,,,,,,,0,0,0,0,6,1,25,2,,,,,,,,,,,,,,,,,,,,,,,,,,,,,,,,,,,,,,,,,LearningTask,,,60.001688051,3,2015_May_27_1625,5,
-200,q,200,,,,,,,,,,,,,,,,,0,0,0,0,6,2,26,1,0,0,0,0,None,,,,,,,,278.445472002,q,1,0.500421047211,0.506921052933,0.00104689598083,281.437379122,,,,,,,,,,,,,,,,,,,2.01,,,LearningTask,,,60.001688051,3,2015_May_27_1625,5,
-200,q,200,,,,,,,,,,,,,,,,,0,0,0,0,6,2,26,1,,,,,,,,,,,,,,,,,,,,,,,,,,,,,,,,,,,,,,,,,LearningTask,,,60.001688051,3,2015_May_27_1625,5,
-200,a,-200,,,,,,,,,,,,,,,,,0,0,0,0,6,3,27,3,0,0,0,0,None,,,,,,,,281.854449987,a,1,0.767493009567,0.514911174774,0.000974178314209,284.854524136,,,,,,,,,,,,,,,,,,,1.85,,,LearningTask,,,60.001688051,3,2015_May_27_1625,5,
-200,a,-200,,,,,,,,,,,,,,,,,0,0,0,0,6,3,27,3,,,,,,,,,,,,,,,,,,,,,,,,,,,,,,,,,,,,,,,,,LearningTask,,,60.001688051,3,2015_May_27_1625,5,
-200,q,200,,,,,,,,,,,,,,,,,0,0,0,0,7,0,28,1,0,0,0,0,None,,,,,,,,285.229146957,q,1,0.400563955307,0.507386922836,0.000996828079224,288.221904039,,,,,,,,,,,,,,,,,,,1.76,,,LearningTask,,,60.001688051,3,2015_May_27_1625,5,
-200,q,200,,,,,,,,,,,,,,,,,0,0,0,0,7,0,28,1,,,,,,,,,,,,,,,,,,,,,,,,,,,,,,,,,,,,,,,,,LearningTask,,,60.001688051,3,2015_May_27_1625,5,
200,w,200,,,,,,,,,,,,,,,,,0,0,0,0,7,1,29,0,0,0,0,0,None,,,,,,,,288.605395079,w,1,0.350826978683,0.514940977097,0.000961065292358,291.605649948,,,,,,,,,,,,,,,,,,,2.22,,,LearningTask,,,60.001688051,3,2015_May_27_1625,5,
200,w,200,,,,,,,,,,,,,,,,,0,0,0,0,7,1,29,0,,,,,,,,,,,,,,,,,,,,,,,,,,,,,,,,,,,,,,,,,LearningTask,,,60.001688051,3,2015_May_27_1625,5,
200,s,-200,,,,,,,,,,,,,,,,,0,0,0,0,7,2,30,2,0,0,0,0,None,,,,,,,,292.043384075,s,1,0.484088897705,0.510890960693,0.00094199180603,295.039505005,,,,,,,,,,,,,,,,,,,0.87,,,LearningTask,,,60.001688051,3,2015_May_27_1625,5,
200,s,-200,,,,,,,,,,,,,,,,,0,0,0,0,7,2,30,2,,,,,,,,,,,,,,,,,,,,,,,,,,,,,,,,,,,,,,,,,LearningTask,,,60.001688051,3,2015_May_27_1625,5,
200,w,200,,,,,,,,,,,,,,,,,0,0,0,0,7,3,31,0,0,0,0,0,None,,,,,,,,295.46203804,w,1,0.534316062927,0.508960962296,0.00144386291504,298.456485033,,,,,,,,,,,,,,,,,,,0.26,,,LearningTask,,,60.001688051,3,2015_May_27_1625,5,
200,w,200,,,,,,,,,,,,,,,,,0,0,0,0,7,3,31,0,,,,,,,,,,,,,,,,,,,,,,,,,,,,,,,,,,,,,,,,,LearningTask,,,60.001688051,3,2015_May_27_1625,5,
-200,a,-200,,,,,,,,,,,,,,,,,0,0,0,0,8,0,32,3,0,0,0,0,None,,,,,,,,298.874773979,a,1,0.367547035217,0.513756990433,0.000959157943726,301.873693943,,,,,,,,,,,,,,,,,,,2.08,,,LearningTask,,,60.001688051,3,2015_May_27_1625,5,
-200,a,-200,,,,,,,,,,,,,,,,,0,0,0,0,8,0,32,3,,,,,,,,,,,,,,,,,,,,,,,,,,,,,,,,,,,,,,,,,LearningTask,,,60.001688051,3,2015_May_27_1625,5,
-200,a,-200,,,,,,,,,,,,,,,,,0,0,0,0,8,1,33,3,0,0,0,0,None,,,,,,,,302.344010115,a,1,0.517650842667,0.511686086655,0.000963926315308,305.340739012,,,,,,,,,,,,,,,,,,,1.17,,,LearningTask,,,60.001688051,3,2015_May_27_1625,5,
-200,a,-200,,,,,,,,,,,,,,,,,0,0,0,0,8,1,33,3,,,,,,,,,,,,,,,,,,,,,,,,,,,,,,,,,,,,,,,,,LearningTask,,,60.001688051,3,2015_May_27_1625,5,
200,w,200,,,,,,,,,,,,,,,,,0,0,0,0,8,2,34,0,0,0,0,0,None,,,,,,,,305.767292976,w,1,0.867803812027,0.505523920059,0.000917911529541,308.757972002,,,,,,,,,,,,,,,,,,,4.22,,,LearningTask,,,60.001688051,3,2015_May_27_1625,5,
200,w,200,,,,,,,,,,,,,,,,,0,0,0,0,8,2,34,0,,,,,,,,,,,,,,,,,,,,,,,,,,,,,,,,,,,,,,,,,LearningTask,,,60.001688051,3,2015_May_27_1625,5,
200,s,-200,,,,,,,,,,,,,,,,,0,0,0,0,8,3,35,2,0,0,0,0,None,,,,,,,,309.187179089,s,1,0.701145887375,0.502794027328,0.000910043716431,312.191798925,,,,,,,,,,,,,,,,,,,3.91,,,LearningTask,,,60.001688051,3,2015_May_27_1625,5,
200,s,-200,,,,,,,,,,,,,,,,,0,0,0,0,8,3,35,2,,,,,,,,,,,,,,,,,,,,,,,,,,,,,,,,,,,,,,,,,LearningTask,,,60.001688051,3,2015_May_27_1625,5,
-200,a,-200,,,,,,,,,,,,,,,,,0,0,0,0,9,0,36,3,0,0,0,0,None,,,,,,,,312.676137924,q,0,0.334251880646,0.514293909073,0.000988006591797,315.675658941,,,,,,,,,,,,,,,,,,,4.13,,,LearningTask,,,60.001688051,3,2015_May_27_1625,5,
-200,a,-200,,,,,,,,,,,,,,,,,0,0,0,0,9,0,36,3,1,0,1,0,None,,,,,,,,,a,1,0.200834035873,0.515661001205,0.00163817405701,318.676147938,,,,,,,,,,,,,,,,,,,3.78,,,LearningTask,,,60.001688051,3,2015_May_27_1625,5,
-200,a,-200,,,,,,,,,,,,,,,,,0,0,0,0,9,0,36,3,,,,,,,,,,,,,,,,,,,,,,,,,,,,,,,,,,,,,,,,,LearningTask,,,60.001688051,3,2015_May_27_1625,5,
200,w,200,,,,,,,,,,,,,,,,,0,0,0,0,9,1,37,0,0,0,0,0,None,,,,,,,,319.131415129,w,1,0.350909948349,0.5099401474,0.00116109848022,322.126667023,,,,,,,,,,,,,,,,,,,1.98,,,LearningTask,,,60.001688051,3,2015_May_27_1625,5,
200,w,200,,,,,,,,,,,,,,,,,0,0,0,0,9,1,37,0,,,,,,,,,,,,,,,,,,,,,,,,,,,,,,,,,,,,,,,,,LearningTask,,,60.001688051,3,2015_May_27_1625,5,
-200,a,-200,,,,,,,,,,,,,,,,,0,0,0,0,9,2,38,3,0,0,0,0,None,,,,,,,,322.588638067,a,1,0.450871944427,0.50332403183,0.000972986221313,325.593717098,,,,,,,,,,,,,,,,,,,1.14,,,LearningTask,,,60.001688051,3,2015_May_27_1625,5,
-200,a,-200,,,,,,,,,,,,,,,,,0,0,0,0,9,2,38,3,,,,,,,,,,,,,,,,,,,,,,,,,,,,,,,,,,,,,,,,,LearningTask,,,60.001688051,3,2015_May_27_1625,5,
200,w,200,,,,,,,,,,,,,,,,,0,0,0,0,9,3,39,0,0,0,0,0,None,,,,,,,,326.09876895,w,1,0.33401799202,0.510235071182,0.00097393989563,329.094166994,,,,,,,,,,,,,,,,,,,4.0,,,LearningTask,,,60.001688051,3,2015_May_27_1625,5,
200,w,200,,,,,,,,,,,,,,,,,0,0,0,0,9,3,39,0,,,,,,,,,,,,,,,,,,,,,,,,,,,,,,,,,,,,,,,,,LearningTask,,,60.001688051,3,2015_May_27_1625,5,
200,s,-200,,,,,,,,,,,,,,,,,0,0,0,0,10,0,40,2,0,0,0,0,None,,,,,,,,329.578948021,s,1,0.450993061066,0.513864994049,0.000954866409302,332.578201056,,,,,,,,,,,,,,,,,,,4.08,,,LearningTask,,,60.001688051,3,2015_May_27_1625,5,
200,s,-200,,,,,,,,,,,,,,,,,0,0,0,0,10,0,40,2,,,,,,,,,,,,,,,,,,,,,,,,,,,,,,,,,,,,,,,,,LearningTask,,,60.001688051,3,2015_May_27_1625,5,
-200,q,200,,,,,,,,,,,,,,,,,0,0,0,0,10,1,41,1,0,0,0,0,None,,,,,,,,333.067337036,q,1,0.417320966721,0.509567022324,0.000981092453003,336.061928034,,,,,,,,,,,,,,,,,,,0.25,,,LearningTask,,,60.001688051,3,2015_May_27_1625,5,
-200,q,200,,,,,,,,,,,,,,,,,0,0,0,0,10,1,41,1,,,,,,,,,,,,,,,,,,,,,,,,,,,,,,,,,,,,,,,,,LearningTask,,,60.001688051,3,2015_May_27_1625,5,
200,s,-200,,,,,,,,,,,,,,,,,0,0,0,0,10,2,42,2,0,0,0,0,None,,,,,,,,336.601257086,s,1,0.467660903931,0.509032964706,0.000963926315308,339.595650911,,,,,,,,,,,,,,,,,,,1.82,,,LearningTask,,,60.001688051,3,2015_May_27_1625,5,
200,s,-200,,,,,,,,,,,,,,,,,0,0,0,0,10,2,42,2,,,,,,,,,,,,,,,,,,,,,,,,,,,,,,,,,,,,,,,,,LearningTask,,,60.001688051,3,2015_May_27_1625,5,
-200,q,200,,,,,,,,,,,,,,,,,0,0,0,0,10,3,43,1,0,0,0,0,None,,,,,,,,340.088684082,None,0,,0.505835056305,0.000919103622437,343.079666138,,,,,,,,,,,,,,,,,,,4.08,,,LearningTask,,,60.001688051,3,2015_May_27_1625,5,
-200,q,200,,,,,,,,,,,,,,,,,0,0,0,0,10,3,43,1,1,0,1,0,None,,,,,,,,,q,1,0.667587041855,0.515311956406,0.00174498558044,346.079903126,,,,,,,,,,,,,,,,,,,3.94,,,LearningTask,,,60.001688051,3,2015_May_27_1625,5,
-200,q,200,,,,,,,,,,,,,,,,,0,0,0,0,10,3,43,1,,,,,,,,,,,,,,,,,,,,,,,,,,,,,,,,,,,,,,,,,LearningTask,,,60.001688051,3,2015_May_27_1625,5,
-200,q,200,,,,,,,,,,,,,,,,,0,0,0,0,11,0,44,1,0,0,0,0,None,,,,,,,,346.583815098,q,1,0.451002120972,0.511435985565,0.000984907150269,349.580498934,,,,,,,,,,,,,,,,,,,0.55,,,LearningTask,,,60.001688051,3,2015_May_27_1625,5,
-200,q,200,,,,,,,,,,,,,,,,,0,0,0,0,11,0,44,1,,,,,,,,,,,,,,,,,,,,,,,,,,,,,,,,,,,,,,,,,LearningTask,,,60.001688051,3,2015_May_27_1625,5,
200,s,-200,,,,,,,,,,,,,,,,,0,0,0,0,11,1,45,2,0,0,0,0,None,,,,,,,,350.143887997,s,1,0.717825889587,0.501751184464,0.00093412399292,353.147578955,,,,,,,,,,,,,,,,,,,0.4,,,LearningTask,,,60.001688051,3,2015_May_27_1625,5,
200,s,-200,,,,,,,,,,,,,,,,,0,0,0,0,11,1,45,2,,,,,,,,,,,,,,,,,,,,,,,,,,,,,,,,,,,,,,,,,LearningTask,,,60.001688051,3,2015_May_27_1625,5,
-200,q,200,,,,,,,,,,,,,,,,,0,0,0,0,11,2,46,1,0,0,0,0,None,,,,,,,,353.658262014,w,0,0.767564058304,0.504690170288,0.000971078872681,356.648133039,,,,,,,,,,,,,,,,,,,0.9,,,LearningTask,,,60.001688051,3,2015_May_27_1625,5,
-200,q,200,,,,,,,,,,,,,,,,,0,0,0,0,11,2,46,1,1,0,1,0,None,,,,,,,,,q,1,0.800150156021,0.515558958054,0.00146198272705,359.648646116,,,,,,,,,,,,,,,,,,,0.85,,,LearningTask,,,60.001688051,3,2015_May_27_1625,5,
-200,q,200,,,,,,,,,,,,,,,,,0,0,0,0,11,2,46,1,,,,,,,,,,,,,,,,,,,,,,,,,,,,,,,,,,,,,,,,,LearningTask,,,60.001688051,3,2015_May_27_1625,5,
-200,a,-200,,,,,,,,,,,,,,,,,0,0,0,0,11,3,47,3,0,0,0,0,None,,,,,,,,360.188471079,w,0,0.60066318512,0.508863925934,0.000977993011475,363.182249069,,,,,,,,,,,,,,,,,,,0.48,,,LearningTask,,,60.001688051,3,2015_May_27_1625,5,
-200,a,-200,,,,,,,,,,,,,,,,,0,0,0,0,11,3,47,3,1,0,1,0,None,,,,,,,,,a,1,0.717418909073,0.515686988831,0.0017249584198,366.183085918,,,,,,,,,,,,,,,,,,,0.73,,,LearningTask,,,60.001688051,3,2015_May_27_1625,5,
-200,a,-200,,,,,,,,,,,,,,,,,0,0,0,0,11,3,47,3,,,,,,,,,,,,,,,,,,,,,,,,,,,,,,,,,,,,,,,,,LearningTask,,,60.001688051,3,2015_May_27_1625,5,
-200,q,200,,,,,,,,,,,,,,,,,0,0,0,0,12,0,48,1,0,0,0,0,None,,,,,,,,366.75108099,q,1,0.783711194992,0.513640165329,0.00124216079712,369.75010705,,,,,,,,,,,,,,,,,,,1.14,,,LearningTask,,,60.001688051,3,2015_May_27_1625,5,
-200,q,200,,,,,,,,,,,,,,,,,0,0,0,0,12,0,48,1,,,,,,,,,,,,,,,,,,,,,,,,,,,,,,,,,,,,,,,,,LearningTask,,,60.001688051,3,2015_May_27_1625,5,
-200,a,-200,,,,,,,,,,,,,,,,,0,0,0,0,12,1,49,3,0,0,0,0,None,,,,,,,,370.281266928,a,1,0.700762987137,0.500488042831,0.00133299827576,373.283795118,,,,,,,,,,,,,,,,,,,0.81,,,LearningTask,,,60.001688051,3,2015_May_27_1625,5,
-200,a,-200,,,,,,,,,,,,,,,,,0,0,0,0,12,1,49,3,,,,,,,,,,,,,,,,,,,,,,,,,,,,,,,,,,,,,,,,,LearningTask,,,60.001688051,3,2015_May_27_1625,5,
200,w,200,,,,,,,,,,,,,,,,,0,0,0,0,12,2,50,0,0,0,0,0,None,,,,,,,,373.878502131,w,1,0.967712879181,0.503913164139,0.00100111961365,376.884592056,,,,,,,,,,,,,,,,,,,0.52,,,LearningTask,,,60.001688051,3,2015_May_27_1625,5,
200,w,200,,,,,,,,,,,,,,,,,0,0,0,0,12,2,50,0,,,,,,,,,,,,,,,,,,,,,,,,,,,,,,,,,,,,,,,,,LearningTask,,,60.001688051,3,2015_May_27_1625,5,
200,s,-200,,,,,,,,,,,,,,,,,0,0,0,0,12,3,51,2,0,0,0,0,None,,,,,,,,377.442842007,s,1,0.734223127365,0.506846904755,0.000972032546997,380.435061932,,,,,,,,,,,,,,,,,,,1.85,,,LearningTask,,,60.001688051,3,2015_May_27_1625,5,
200,s,-200,,,,,,,,,,,,,,,,,0,0,0,0,12,3,51,2,,,,,,,,,,,,,,,,,,,,,,,,,,,,,,,,,,,,,,,,,LearningTask,,,60.001688051,3,2015_May_27_1625,5,
-200,a,-200,,,,,,,,,,,,,,,,,0,0,0,0,13,0,52,3,0,0,0,0,None,,,,,,,,380.994483948,a,1,0.801103115082,0.505645036697,0.000931978225708,383.985239983,,,,,,,,,,,,,,,,,,,1.92,,,LearningTask,,,60.001688051,3,2015_May_27_1625,5,
-200,a,-200,,,,,,,,,,,,,,,,,0,0,0,0,13,0,52,3,,,,,,,,,,,,,,,,,,,,,,,,,,,,,,,,,,,,,,,,,LearningTask,,,60.001688051,3,2015_May_27_1625,5,
-200,a,-200,,,,,,,,,,,,,,,,,0,0,0,0,13,1,53,3,0,0,0,0,None,,,,,,,,384.585730076,a,1,0.65086889267,0.514756917953,0.000929832458496,387.585804939,,,,,,,,,,,,,,,,,,,0.87,,,LearningTask,,,60.001688051,3,2015_May_27_1625,5,
-200,a,-200,,,,,,,,,,,,,,,,,0,0,0,0,13,1,53,3,,,,,,,,,,,,,,,,,,,,,,,,,,,,,,,,,,,,,,,,,LearningTask,,,60.001688051,3,2015_May_27_1625,5,
200,s,-200,,,,,,,,,,,,,,,,,0,0,0,0,13,2,54,2,0,0,0,0,None,,,,,,,,388.168782949,s,1,0.650833129883,0.515777111053,0.000992059707642,391.169665098,,,,,,,,,,,,,,,,,,,4.15,,,LearningTask,,,60.001688051,3,2015_May_27_1625,5,
200,s,-200,,,,,,,,,,,,,,,,,0,0,0,0,13,2,54,2,,,,,,,,,,,,,,,,,,,,,,,,,,,,,,,,,,,,,,,,,LearningTask,,,60.001688051,3,2015_May_27_1625,5,
-200,a,-200,,,,,,,,,,,,,,,,,0,0,0,0,13,3,55,3,0,0,0,0,None,,,,,,,,391.818037033,a,1,0.550880908966,0.50031208992,0.00142288208008,394.82013011,,,,,,,,,,,,,,,,,,,0.33,,,LearningTask,,,60.001688051,3,2015_May_27_1625,5,
-200,a,-200,,,,,,,,,,,,,,,,,0,0,0,0,13,3,55,3,,,,,,,,,,,,,,,,,,,,,,,,,,,,,,,,,,,,,,,,,LearningTask,,,60.001688051,3,2015_May_27_1625,5,
200,s,-200,,,,,,,,,,,,,,,,,0,0,0,0,14,0,56,2,0,0,0,0,None,,,,,,,,395.437773943,None,0,,0.514407873154,0.000975847244263,398.437403917,,,,,,,,,,,,,,,,,,,1.05,,,LearningTask,,,60.001688051,3,2015_May_27_1625,5,
200,s,-200,,,,,,,,,,,,,,,,,0,0,0,0,14,0,56,2,1,0,1,0,None,,,,,,,,,None,0,,0.515711069107,0.00173306465149,401.437777996,,,,,,,,,,,,,,,,,,,1.18,,,LearningTask,,,60.001688051,3,2015_May_27_1625,5,
200,s,-200,,,,,,,,,,,,,,,,,0,0,0,0,14,0,56,2,2,0,2,0,None,,,,,,,,,None,0,,0.515805006027,0.00148105621338,404.43822813,,,,,,,,,,,,,,,,,,,1.13,,,LearningTask,,,60.001688051,3,2015_May_27_1625,5,
200,s,-200,,,,,,,,,,,,,,,,,0,0,0,0,14,0,56,2,3,0,3,0,None,,,,,,,,,s,1,0.451035022736,0.515567064285,0.00156021118164,407.438588142,,,,,,,,,,,,,,,,,,,0.84,,,LearningTask,,,60.001688051,3,2015_May_27_1625,5,
200,s,-200,,,,,,,,,,,,,,,,,0,0,0,0,14,0,56,2,,,,,,,,,,,,,,,,,,,,,,,,,,,,,,,,,,,,,,,,,LearningTask,,,60.001688051,3,2015_May_27_1625,5,
-200,a,-200,,,,,,,,,,,,,,,,,0,0,0,0,14,1,57,3,0,0,0,0,None,,,,,,,,408.0864501,a,1,0.534237861633,0.501155853271,0.000927925109863,411.089165926,,,,,,,,,,,,,,,,,,,0.8,,,LearningTask,,,60.001688051,3,2015_May_27_1625,5,
-200,a,-200,,,,,,,,,,,,,,,,,0,0,0,0,14,1,57,3,,,,,,,,,,,,,,,,,,,,,,,,,,,,,,,,,,,,,,,,,LearningTask,,,60.001688051,3,2015_May_27_1625,5,
-200,a,-200,,,,,,,,,,,,,,,,,0,0,0,0,14,2,58,3,0,0,0,0,None,,,,,,,,411.70454812,a,1,0.484116077423,0.500148057938,0.00102305412292,414.706538916,,,,,,,,,,,,,,,,,,,0.29,,,LearningTask,,,60.001688051,3,2015_May_27_1625,5,
-200,a,-200,,,,,,,,,,,,,,,,,0,0,0,0,14,2,58,3,,,,,,,,,,,,,,,,,,,,,,,,,,,,,,,,,,,,,,,,,LearningTask,,,60.001688051,3,2015_May_27_1625,5,
200,w,200,,,,,,,,,,,,,,,,,0,0,0,0,14,3,59,0,0,0,0,0,None,,,,,,,,415.363820076,w,1,0.484059095383,0.507972002029,0.00092601776123,418.35687995,,,,,,,,,,,,,,,,,,,1.06,,,LearningTask,,,60.001688051,3,2015_May_27_1625,5,
200,w,200,,,,,,,,,,,,,,,,,0,0,0,0,14,3,59,0,,,,,,,,,,,,,,,,,,,,,,,,,,,,,,,,,,,,,,,,,LearningTask,,,60.001688051,3,2015_May_27_1625,5,
200,s,-200,,,,,,,,,,,,,,,,,0,0,0,0,15,0,60,2,0,0,0,0,None,,,,,,,,418.99770999,s,1,0.801213026047,0.50782585144,0.000906944274902,421.990864038,,,,,,,,,,,,,,,,,,,0.35,,,LearningTask,,,60.001688051,3,2015_May_27_1625,5,
200,s,-200,,,,,,,,,,,,,,,,,0,0,0,0,15,0,60,2,,,,,,,,,,,,,,,,,,,,,,,,,,,,,,,,,,,,,,,,,LearningTask,,,60.001688051,3,2015_May_27_1625,5,
-200,q,200,,,,,,,,,,,,,,,,,0,0,0,0,15,1,61,1,0,0,0,0,None,,,,,,,,422.627563,s,0,0.417814016342,0.511698961258,0.000994920730591,425.624773979,,,,,,,,,,,,,,,,,,,0.52,,,LearningTask,,,60.001688051,3,2015_May_27_1625,5,
-200,q,200,,,,,,,,,,,,,,,,,0,0,0,0,15,1,61,1,1,0,1,0,None,,,,,,,,,s,0,0.41717004776,0.515537977219,0.00177407264709,428.625169039,,,,,,,,,,,,,,,,,,,0.5,,,LearningTask,,,60.001688051,3,2015_May_27_1625,5,
-200,q,200,,,,,,,,,,,,,,,,,0,0,0,0,15,1,61,1,2,0,2,0,None,,,,,,,,,q,1,0.916980981827,0.515542984009,0.00178098678589,431.625378132,,,,,,,,,,,,,,,,,,,0.29,,,LearningTask,,,60.001688051,3,2015_May_27_1625,5,
-200,q,200,,,,,,,,,,,,,,,,,0,0,0,0,15,1,61,1,,,,,,,,,,,,,,,,,,,,,,,,,,,,,,,,,,,,,,,,,LearningTask,,,60.001688051,3,2015_May_27_1625,5,
200,s,-200,,,,,,,,,,,,,,,,,0,0,0,0,15,2,62,2,0,0,0,0,None,,,,,,,,432.330388069,None,0,,0.510592937469,0.000962972640991,435.326035023,,,,,,,,,,,,,,,,,,,1.75,,,LearningTask,,,60.001688051,3,2015_May_27_1625,5,
200,s,-200,,,,,,,,,,,,,,,,,0,0,0,0,15,2,62,2,1,0,1,0,None,,,,,,,,,None,0,,0.515405893326,0.00169897079468,438.326600075,,,,,,,,,,,,,,,,,,,2.21,,,LearningTask,,,60.001688051,3,2015_May_27_1625,5,
200,s,-200,,,,,,,,,,,,,,,,,0,0,0,0,15,2,62,2,2,0,2,0,None,,,,,,,,,s,1,0.450855970383,0.515425920486,0.00160789489746,441.327147007,,,,,,,,,,,,,,,,,,,1.86,,,LearningTask,,,60.001688051,3,2015_May_27_1625,5,
200,s,-200,,,,,,,,,,,,,,,,,0,0,0,0,15,2,62,2,,,,,,,,,,,,,,,,,,,,,,,,,,,,,,,,,,,,,,,,,LearningTask,,,60.001688051,3,2015_May_27_1625,5,
-200,a,-200,,,,,,,,,,,,,,,,,0,0,0,0,15,3,63,3,0,0,0,0,None,,,,,,,,441.965363026,a,1,0.583866834641,0.510432004929,0.000912189483643,444.960763931,,,,,,,,,,,,,,,,,,,4.14,,,LearningTask,,,60.001688051,3,2015_May_27_1625,5,
-200,a,-200,,,,,,,,,,,,,,,,,0,0,0,0,15,3,63,3,,,,,,,,,,,,,,,,,,,,,,,,,,,,,,,,,,,,,,,,,LearningTask,,,60.001688051,3,2015_May_27_1625,5,
200,w,200,,,,,,,,,,,,,,,,,0,0,0,0,16,0,64,0,0,0,0,0,None,,,,,,,,445.663213015,w,1,0.550786018372,0.513041973114,0.000931978225708,448.661653996,,,,,,,,,,,,,,,,,,,0.52,,,LearningTask,,,60.001688051,3,2015_May_27_1625,5,
200,w,200,,,,,,,,,,,,,,,,,0,0,0,0,16,0,64,0,,,,,,,,,,,,,,,,,,,,,,,,,,,,,,,,,,,,,,,,,LearningTask,,,60.001688051,3,2015_May_27_1625,5,
-200,q,200,,,,,,,,,,,,,,,,,0,0,0,0,16,1,65,1,0,0,0,0,None,,,,,,,,449.317137003,q,1,0.584124088287,0.509584903717,0.000968933105469,452.311959982,,,,,,,,,,,,,,,,,,,1.12,,,LearningTask,,,60.001688051,3,2015_May_27_1625,5,
-200,q,200,,,,,,,,,,,,,,,,,0,0,0,0,16,1,65,1,,,,,,,,,,,,,,,,,,,,,,,,,,,,,,,,,,,,,,,,,LearningTask,,,60.001688051,3,2015_May_27_1625,5,
-200,a,-200,,,,,,,,,,,,,,,,,0,0,0,0,16,2,66,3,0,0,0,0,None,,,,,,,,453.024524927,a,1,0.634307146072,0.50265288353,0.00092887878418,456.028989077,,,,,,,,,,,,,,,,,,,2.12,,,LearningTask,,,60.001688051,3,2015_May_27_1625,5,
-200,a,-200,,,,,,,,,,,,,,,,,0,0,0,0,16,2,66,3,,,,,,,,,,,,,,,,,,,,,,,,,,,,,,,,,,,,,,,,,LearningTask,,,60.001688051,3,2015_May_27_1625,5,
-200,a,-200,,,,,,,,,,,,,,,,,0,0,0,0,16,3,67,3,0,0,0,0,None,,,,,,,,456.704690933,a,1,0.567958831787,0.506232023239,0.000922203063965,459.696320057,,,,,,,,,,,,,,,,,,,3.95,,,LearningTask,,,60.001688051,3,2015_May_27_1625,5,
-200,a,-200,,,,,,,,,,,,,,,,,0,0,0,0,16,3,67,3,,,,,,,,,,,,,,,,,,,,,,,,,,,,,,,,,,,,,,,,,LearningTask,,,60.001688051,3,2015_May_27_1625,5,
-200,a,-200,,,,,,,,,,,,,,,,,0,0,0,0,17,0,68,3,0,0,0,0,None,,,,,,,,460.428558111,a,1,0.484833955765,0.516323804855,0.00104093551636,463.430236101,,,,,,,,,,,,,,,,,,,0.63,,,LearningTask,,,60.001688051,3,2015_May_27_1625,5,
-200,a,-200,,,,,,,,,,,,,,,,,0,0,0,0,17,0,68,3,,,,,,,,,,,,,,,,,,,,,,,,,,,,,,,,,,,,,,,,,LearningTask,,,60.001688051,3,2015_May_27_1625,5,
-200,q,200,,,,,,,,,,,,,,,,,0,0,0,0,17,1,69,1,0,0,0,0,None,,,,,,,,464.122481108,q,1,0.450479030609,0.506218910217,0.000974893569946,467.113969088,,,,,,,,,,,,,,,,,,,2.13,,,LearningTask,,,60.001688051,3,2015_May_27_1625,5,
-200,q,200,,,,,,,,,,,,,,,,,0,0,0,0,17,1,69,1,,,,,,,,,,,,,,,,,,,,,,,,,,,,,,,,,,,,,,,,,LearningTask,,,60.001688051,3,2015_May_27_1625,5,
200,s,-200,,,,,,,,,,,,,,,,,0,0,0,0,17,2,70,2,0,0,0,0,None,,,,,,,,467.862098932,s,1,0.567362070084,0.500387907028,0.000952959060669,470.864356041,,,,,,,,,,,,,,,,,,,2.2,,,LearningTask,,,60.001688051,3,2015_May_27_1625,5,
200,s,-200,,,,,,,,,,,,,,,,,0,0,0,0,17,2,70,2,,,,,,,,,,,,,,,,,,,,,,,,,,,,,,,,,,,,,,,,,LearningTask,,,60.001688051,3,2015_May_27_1625,5,
200,w,200,,,,,,,,,,,,,,,,,0,0,0,0,17,3,71,0,0,0,0,0,None,,,,,,,,471.580842018,w,1,0.51765704155,0.515582084656,0.000899076461792,474.581641912,,,,,,,,,,,,,,,,,,,1.94,,,LearningTask,,,60.001688051,3,2015_May_27_1625,5,
200,w,200,,,,,,,,,,,,,,,,,0,0,0,0,17,3,71,0,,,,,,,,,,,,,,,,,,,,,,,,,,,,,,,,,,,,,,,,,LearningTask,,,60.001688051,3,2015_May_27_1625,5,
200,s,-200,,,,,,,,,,,,,,,,,0,0,0,0,18,0,72,2,0,0,0,0,None,,,,,,,,475.338330984,s,1,0.350686073303,0.508738994598,0.000897884368896,478.332077026,,,,,,,,,,,,,,,,,,,1.89,,,LearningTask,,,60.001688051,3,2015_May_27_1625,5,
200,s,-200,,,,,,,,,,,,,,,,,0,0,0,0,18,0,72,2,,,,,,,,,,,,,,,,,,,,,,,,,,,,,,,,,,,,,,,,,LearningTask,,,60.001688051,3,2015_May_27_1625,5,
-200,a,-200,,,,,,,,,,,,,,,,,0,0,0,0,18,1,73,3,0,0,0,0,None,,,,,,,,479.063024998,a,1,0.350862979889,0.501022100449,0.000970125198364,482.066117048,,,,,,,,,,,,,,,,,,,3.86,,,LearningTask,,,60.001688051,3,2015_May_27_1625,5,
-200,a,-200,,,,,,,,,,,,,,,,,0,0,0,0,18,1,73,3,,,,,,,,,,,,,,,,,,,,,,,,,,,,,,,,,,,,,,,,,LearningTask,,,60.001688051,3,2015_May_27_1625,5,
200,s,-200,,,,,,,,,,,,,,,,,0,0,0,0,18,2,74,2,0,0,0,0,None,,,,,,,,482.84315896,s,1,0.434388160706,0.504628181458,0.00116515159607,485.833384991,,,,,,,,,,,,,,,,,,,0.93,,,LearningTask,,,60.001688051,3,2015_May_27_1625,5,
200,s,-200,,,,,,,,,,,,,,,,,0,0,0,0,18,2,74,2,,,,,,,,,,,,,,,,,,,,,,,,,,,,,,,,,,,,,,,,,LearningTask,,,60.001688051,3,2015_May_27_1625,5,
-200,q,200,,,,,,,,,,,,,,,,,0,0,0,0,18,3,75,1,0,0,0,0,None,,,,,,,,486.587319136,q,1,0.567486047745,0.511195898056,0.000906944274902,489.583956957,,,,,,,,,,,,,,,,,,,0.25,,,LearningTask,,,60.001688051,3,2015_May_27_1625,5,
-200,q,200,,,,,,,,,,,,,,,,,0,0,0,0,18,3,75,1,,,,,,,,,,,,,,,,,,,,,,,,,,,,,,,,,,,,,,,,,LearningTask,,,60.001688051,3,2015_May_27_1625,5,
-200,a,-200,,,,,,,,,,,,,,,,,0,0,0,0,19,0,76,3,0,0,0,0,None,,,,,,,,490.383496046,None,0,,0.515784978867,0.000949859619141,493.384254932,,,,,,,,,,,,,,,,,,,0.31,,,LearningTask,,,60.001688051,3,2015_May_27_1625,5,
-200,a,-200,,,,,,,,,,,,,,,,,0,0,0,0,19,0,76,3,1,0,1,0,None,,,,,,,,,a,1,0.384073972702,0.51556801796,0.00172710418701,496.384968996,,,,,,,,,,,,,,,,,,,0.34,,,LearningTask,,,60.001688051,3,2015_May_27_1625,5,
-200,a,-200,,,,,,,,,,,,,,,,,0,0,0,0,19,0,76,3,,,,,,,,,,,,,,,,,,,,,,,,,,,,,,,,,,,,,,,,,LearningTask,,,60.001688051,3,2015_May_27_1625,5,
200,s,-200,,,,,,,,,,,,,,,,,0,0,0,0,19,1,77,2,0,0,0,0,None,,,,,,,,497.182241917,s,1,0.367175102234,0.501436948776,0.000905990600586,500.185073137,,,,,,,,,,,,,,,,,,,1.9,,,LearningTask,,,60.001688051,3,2015_May_27_1625,5,
200,s,-200,,,,,,,,,,,,,,,,,0,0,0,0,19,1,77,2,,,,,,,,,,,,,,,,,,,,,,,,,,,,,,,,,,,,,,,,,LearningTask,,,60.001688051,3,2015_May_27_1625,5,
-200,q,200,,,,,,,,,,,,,,,,,0,0,0,0,19,2,78,1,0,0,0,0,None,,,,,,,,500.940611124,q,1,0.317631006241,0.509891033173,0.00139999389648,503.935804129,,,,,,,,,,,,,,,,,,,3.92,,,LearningTask,,,60.001688051,3,2015_May_27_1625,5,
-200,q,200,,,,,,,,,,,,,,,,,0,0,0,0,19,2,78,1,,,,,,,,,,,,,,,,,,,,,,,,,,,,,,,,,,,,,,,,,LearningTask,,,60.001688051,3,2015_May_27_1625,5,
200,w,200,,,,,,,,,,,,,,,,,0,0,0,0,19,3,79,0,0,0,0,0,None,,,,,,,,504.737142086,w,1,0.967444896698,0.514148950577,0.000893831253052,507.736161947,,,,,,,,,,,,,,,,,,,4.22,,,LearningTask,,,60.001688051,3,2015_May_27_1625,5,
200,w,200,,,,,,,,,,,,,,,,,0,0,0,0,19,3,79,0,,,,,,,,,,,,,,,,,,,,,,,,,,,,,,,,,,,,,,,,,LearningTask,,,60.001688051,3,2015_May_27_1625,5,
200,s,-200,,,,,,,,,,,,,,,,,0,0,0,0,20,0,80,2,0,0,0,0,None,,,,,,,,508.520225048,s,1,0.400568008423,0.514889001846,0.00091814994812,511.520442963,,,,,,,,,,,,,,,,,,,1.24,,,LearningTask,,,60.001688051,3,2015_May_27_1625,5,
200,s,-200,,,,,,,,,,,,,,,,,0,0,0,0,20,0,80,2,,,,,,,,,,,,,,,,,,,,,,,,,,,,,,,,,,,,,,,,,LearningTask,,,60.001688051,3,2015_May_27_1625,5,
200,w,200,,,,,,,,,,,,,,,,,0,0,0,0,20,1,81,0,0,0,0,0,None,,,,,,,,512.355166912,w,1,0.533989906311,0.513869047165,0.000946044921875,515.353982925,,,,,,,,,,,,,,,,,,,1.22,,,LearningTask,,,60.001688051,3,2015_May_27_1625,5,
200,w,200,,,,,,,,,,,,,,,,,0,0,0,0,20,1,81,0,,,,,,,,,,,,,,,,,,,,,,,,,,,,,,,,,,,,,,,,,LearningTask,,,60.001688051,3,2015_May_27_1625,5,
-200,a,-200,,,,,,,,,,,,,,,,,0,0,0,0,20,2,82,3,0,0,0,0,None,,,,,,,,516.150367022,a,1,0.5844810009,0.502285003662,0.000899076461792,519.154504061,,,,,,,,,,,,,,,,,,,4.14,,,LearningTask,,,60.001688051,3,2015_May_27_1625,5,
-200,a,-200,,,,,,,,,,,,,,,,,0,0,0,0,20,2,82,3,,,,,,,,,,,,,,,,,,,,,,,,,,,,,,,,,,,,,,,,,LearningTask,,,60.001688051,3,2015_May_27_1625,5,
200,w,200,,,,,,,,,,,,,,,,,0,0,0,0,20,3,83,0,0,0,0,0,None,,,,,,,,520.005604029,w,1,0.384589195251,0.514261960983,0.000951051712036,523.005119085,,,,,,,,,,,,,,,,,,,0.52,,,LearningTask,,,60.001688051,3,2015_May_27_1625,5,
200,w,200,,,,,,,,,,,,,,,,,0,0,0,0,20,3,83,0,,,,,,,,,,,,,,,,,,,,,,,,,,,,,,,,,,,,,,,,,LearningTask,,,60.001688051,3,2015_May_27_1625,5,
-200,a,-200,,,,,,,,,,,,,,,,,0,0,0,0,21,0,84,3,0,0,0,0,None,,,,,,,,523.804825068,a,1,0.567482948303,0.515674829483,0.000962972640991,526.805633068,,,,,,,,,,,,,,,,,,,0.37,,,LearningTask,,,60.001688051,3,2015_May_27_1625,5,
-200,a,-200,,,,,,,,,,,,,,,,,0,0,0,0,21,0,84,3,,,,,,,,,,,,,,,,,,,,,,,,,,,,,,,,,,,,,,,,,LearningTask,,,60.001688051,3,2015_May_27_1625,5,
200,w,200,,,,,,,,,,,,,,,,,0,0,0,0,21,1,85,0,0,0,0,0,None,,,,,,,,527.658833027,w,1,0.450621128082,0.512496948242,0.000945806503296,530.656256914,,,,,,,,,,,,,,,,,,,0.86,,,LearningTask,,,60.001688051,3,2015_May_27_1625,5,
200,w,200,,,,,,,,,,,,,,,,,0,0,0,0,21,1,85,0,,,,,,,,,,,,,,,,,,,,,,,,,,,,,,,,,,,,,,,,,LearningTask,,,60.001688051,3,2015_May_27_1625,5,
-200,q,200,,,,,,,,,,,,,,,,,0,0,0,0,21,2,86,1,0,0,0,0,None,,,,,,,,531.496863127,q,1,0.767781019211,0.508015155792,0.000919103622437,534.490353107,,,,,,,,,,,,,,,,,,,2.07,,,LearningTask,,,60.001688051,3,2015_May_27_1625,5,
-200,q,200,,,,,,,,,,,,,,,,,0,0,0,0,21,2,86,1,,,,,,,,,,,,,,,,,,,,,,,,,,,,,,,,,,,,,,,,,LearningTask,,,60.001688051,3,2015_May_27_1625,5,
200,s,-200,,,,,,,,,,,,,,,,,0,0,0,0,21,3,87,2,0,0,0,0,None,,,,,,,,535.366611004,s,1,0.467576980591,0.505336046219,0.0011990070343,538.357381105,,,,,,,,,,,,,,,,,,,0.47,,,LearningTask,,,60.001688051,3,2015_May_27_1625,5,
200,s,-200,,,,,,,,,,,,,,,,,0,0,0,0,21,3,87,2,,,,,,,,,,,,,,,,,,,,,,,,,,,,,,,,,,,,,,,,,LearningTask,,,60.001688051,3,2015_May_27_1625,5,
-200,q,200,,,,,,,,,,,,,,,,,0,0,0,0,22,0,88,1,0,0,0,0,None,,,,,,,,539.191972017,q,1,0.367570161819,0.513993024826,0.000903129577637,542.191091061,,,,,,,,,,,,,,,,,,,1.85,,,LearningTask,,,60.001688051,3,2015_May_27_1625,5,
-200,q,200,,,,,,,,,,,,,,,,,0,0,0,0,22,0,88,1,,,,,,,,,,,,,,,,,,,,,,,,,,,,,,,,,,,,,,,,,LearningTask,,,60.001688051,3,2015_May_27_1625,5,
-200,q,200,,,,,,,,,,,,,,,,,0,0,0,0,22,1,89,1,0,0,0,0,None,,,,,,,,543.081893921,q,1,0.416905879974,0.508131027222,0.000957012176514,546.075371981,,,,,,,,,,,,,,,,,,,2.07,,,LearningTask,,,60.001688051,3,2015_May_27_1625,5,
-200,q,200,,,,,,,,,,,,,,,,,0,0,0,0,22,1,89,1,,,,,,,,,,,,,,,,,,,,,,,,,,,,,,,,,,,,,,,,,LearningTask,,,60.001688051,3,2015_May_27_1625,5,
-200,a,-200,,,,,,,,,,,,,,,,,0,0,0,0,22,2,90,3,0,0,0,0,None,,,,,,,,546.980046034,a,1,0.617698907852,0.510382890701,0.000890970230103,549.975765944,,,,,,,,,,,,,,,,,,,0.44,,,LearningTask,,,60.001688051,3,2015_May_27_1625,5,
-200,a,-200,,,,,,,,,,,,,,,,,0,0,0,0,22,2,90,3,,,,,,,,,,,,,,,,,,,,,,,,,,,,,,,,,,,,,,,,,LearningTask,,,60.001688051,3,2015_May_27_1625,5,
-200,a,-200,,,,,,,,,,,,,,,,,0,0,0,0,22,3,91,3,0,0,0,0,None,,,,,,,,550.841315985,a,1,0.567301034927,0.516268014908,0.000891923904419,553.84295392,,,,,,,,,,,,,,,,,,,1.17,,,LearningTask,,,60.001688051,3,2015_May_27_1625,5,
-200,a,-200,,,,,,,,,,,,,,,,,0,0,0,0,22,3,91,3,,,,,,,,,,,,,,,,,,,,,,,,,,,,,,,,,,,,,,,,,LearningTask,,,60.001688051,3,2015_May_27_1625,5,
-200,a,-200,,,,,,,,,,,,,,,,,0,0,0,0,23,0,92,3,0,0,0,0,None,,,,,,,,554.769273043,a,1,0.567543029785,0.505745887756,0.00101089477539,557.760118961,,,,,,,,,,,,,,,,,,,0.55,,,LearningTask,,,60.001688051,3,2015_May_27_1625,5,
-200,a,-200,,,,,,,,,,,,,,,,,0,0,0,0,23,0,92,3,,,,,,,,,,,,,,,,,,,,,,,,,,,,,,,,,,,,,,,,,LearningTask,,,60.001688051,3,2015_May_27_1625,5,
200,w,200,,,,,,,,,,,,,,,,,0,0,0,0,23,1,93,0,0,0,0,0,None,,,,,,,,558.635041952,w,1,0.534432888031,0.507093906403,0.000944852828979,561.627319098,,,,,,,,,,,,,,,,,,,1.1,,,LearningTask,,,60.001688051,3,2015_May_27_1625,5,
200,w,200,,,,,,,,,,,,,,,,,0,0,0,0,23,1,93,0,,,,,,,,,,,,,,,,,,,,,,,,,,,,,,,,,,,,,,,,,LearningTask,,,60.001688051,3,2015_May_27_1625,5,
200,w,200,,,,,,,,,,,,,,,,,0,0,0,0,23,2,94,0,0,0,0,0,None,,,,,,,,562.557378054,w,1,0.53426194191,0.502089977264,0.000904083251953,565.56123209,,,,,,,,,,,,,,,,,,,2.05,,,LearningTask,,,60.001688051,3,2015_May_27_1625,5,
200,w,200,,,,,,,,,,,,,,,,,0,0,0,0,23,2,94,0,,,,,,,,,,,,,,,,,,,,,,,,,,,,,,,,,,,,,,,,,LearningTask,,,60.001688051,3,2015_May_27_1625,5,
200,s,-200,,,,,,,,,,,,,,,,,0,0,0,0,23,3,95,2,0,0,0,0,None,,,,,,,,566.466522932,s,1,0.417275190353,0.510041952133,0.000908851623535,569.462031126,,,,,,,,,,,,,,,,,,,0.92,,,LearningTask,,,60.001688051,3,2015_May_27_1625,5,
200,s,-200,,,,,,,,,,,,,,,,,0,0,0,0,23,3,95,2,,,,,,,,,,,,,,,,,,,,,,,,,,,,,,,,,,,,,,,,,LearningTask,,,60.001688051,3,2015_May_27_1625,5,
-200,a,-200,,,,,,,,,,,,,,,,,0,0,0,0,24,0,96,3,0,0,0,0,None,,,,,,,,570.405771017,a,1,0.517009019852,0.504914999008,0.00107288360596,573.39564991,,,,,,,,,,,,,,,,,,,3.84,,,LearningTask,,,60.001688051,3,2015_May_27_1625,5,
-200,a,-200,,,,,,,,,,,,,,,,,0,0,0,0,24,0,96,3,,,,,,,,,,,,,,,,,,,,,,,,,,,,,,,,,,,,,,,,,LearningTask,,,60.001688051,3,2015_May_27_1625,5,
200,w,200,,,,,,,,,,,,,,,,,0,0,0,0,24,1,97,0,0,0,0,0,None,,,,,,,,574.352226973,w,1,0.784301996231,0.50895690918,0.00091290473938,577.346297026,,,,,,,,,,,,,,,,,,,1.88,,,LearningTask,,,60.001688051,3,2015_May_27_1625,5,
200,w,200,,,,,,,,,,,,,,,,,0,0,0,0,24,1,97,0,,,,,,,,,,,,,,,,,,,,,,,,,,,,,,,,,,,,,,,,,LearningTask,,,60.001688051,3,2015_May_27_1625,5,
200,s,-200,,,,,,,,,,,,,,,,,0,0,0,0,24,2,98,2,0,0,0,0,None,,,,,,,,578.264890909,s,1,0.333985090256,0.51335310936,0.000931024551392,581.263520002,,,,,,,,,,,,,,,,,,,0.67,,,LearningTask,,,60.001688051,3,2015_May_27_1625,5,
200,s,-200,,,,,,,,,,,,,,,,,0,0,0,0,24,2,98,2,,,,,,,,,,,,,,,,,,,,,,,,,,,,,,,,,,,,,,,,,LearningTask,,,60.001688051,3,2015_May_27_1625,5,
-200,q,200,,,,,,,,,,,,,,,,,0,0,0,0,24,3,99,1,0,0,0,0,None,,,,,,,,582.26195097,q,1,0.500613927841,0.516098022461,0.00137400627136,585.263945103,,,,,,,,,,,,,,,,,,,1.11,,,LearningTask,,,60.001688051,3,2015_May_27_1625,5,
-200,q,200,,,,,,,,,,,,,,,,,0,0,0,0,24,3,99,1,,,,,,,,,,,,,,,,,,,,,,,,,,,,,,,,,,,,,,,,,LearningTask,,,60.001688051,3,2015_May_27_1625,5,
,,,,,,,,,,,,,,,,,,,0,0,0,0,,,,,,,,,,,,,,,,,,,,,,,,,,,,,,,,,,,,,,,,,,,space,6.55635714531,LearningTask,,,60.001688051,3,2015_May_27_1625,5,
