xPos,corrAns,yPos,corrGoResp,yPosGoStim,xPosGoStim,pracTrials.thisRepN,pracTrials.thisTrialN,pracTrials.thisN,pracTrials.thisIndex,ReDoLoopPrac.thisRepN,ReDoLoopPrac.thisTrialN,ReDoLoopPrac.thisN,ReDoLoopPrac.thisIndex,ReDoLoopPrac.thisTrial,pracStopTrials.thisRepN,pracStopTrials.thisTrialN,pracStopTrials.thisN,pracStopTrials.thisIndex,Blocks.thisRepN,Blocks.thisTrialN,Blocks.thisN,Blocks.thisIndex,trials.thisRepN,trials.thisTrialN,trials.thisN,trials.thisIndex,ReDoLoopMain.thisRepN,ReDoLoopMain.thisTrialN,ReDoLoopMain.thisN,ReDoLoopMain.thisIndex,ReDoLoopMain.thisTrial,StopBlocks.thisRepN,StopBlocks.thisTrialN,StopBlocks.thisN,StopBlocks.thisIndex,StopTrials.thisRepN,StopTrials.thisTrialN,StopTrials.thisN,StopTrials.thisIndex,auctionBlocks.thisRepN,auctionBlocks.thisTrialN,auctionBlocks.thisN,auctionBlocks.thisIndex,auctionTrials.thisRepN,auctionTrials.thisTrialN,auctionTrials.thisN,auctionTrials.thisIndex,ok1.keys,ok1.rt,resp.keys,resp.corr,resp.rt,learningStimOnset,learningFixOnset,beginningSSD,trialType,goStim,goResp.keys,goResp.corr,goResp.rt,goTrailCountOutput,goCumRTOutput,goRTCountOutput,stopTrialCountOutput,stopSuccessCountOutput,omissionCountOutput,commissionCountOutput,fixStopOnset,goStimOnset,stopSignalOnset,key_resp_3.keys,key_resp_3.rt,computedRewardOutput,EndingSSD,key_resp_4.keys,key_resp_4.rt,key_resp_5.keys,key_resp_5.rt,auctionResponse.keys,auctionResponse.rt,key_resp_6.keys,key_resp_6.rt,expName,gender (m/f),age,frameRate,session,date,participant,
,,,,,,,,,,,,,,,,,,,,,,,,,,,,,,,,,,,,,,,,,,,,,,,,space,1.086550951,,,,,,,,,,,,,,,,,,,,,,,,,,,,,,,,,,LearningTask,,,59.8154042738,3,2015_Apr_12_1910,61,
200,w,200,,,,0,0,0,8,0,0,0,0,None,,,,,,,,,,,,,,,,,,,,,,,,,,,,,,,,,,,,w,1,0.400302171707,0.506789922714,0.00407004356384,,,,,,,,,,,,,,,,,,,,,,,,,,,,,LearningTask,,,59.8154042738,3,2015_Apr_12_1910,61,
200,w,200,,,,0,0,0,8,,,,,,,,,,,,,,,,,,,,,,,,,,,,,,,,,,,,,,,,,,,,,,,,,,,,,,,,,,,,,,,,,,,,,,,,,,LearningTask,,,59.8154042738,3,2015_Apr_12_1910,61,
-200,a,-200,,,,0,1,1,3,0,0,0,0,None,,,,,,,,,,,,,,,,,,,,,,,,,,,,,,,,,,,,a,1,0.417345046997,0.507356882095,0.00176382064819,,,,,,,,,,,,,,,,,,,,,,,,,,,,,LearningTask,,,59.8154042738,3,2015_Apr_12_1910,61,
-200,a,-200,,,,0,1,1,3,,,,,,,,,,,,,,,,,,,,,,,,,,,,,,,,,,,,,,,,,,,,,,,,,,,,,,,,,,,,,,,,,,,,,,,,,,LearningTask,,,59.8154042738,3,2015_Apr_12_1910,61,
200,w,200,,,,0,2,2,4,0,0,0,0,None,,,,,,,,,,,,,,,,,,,,,,,,,,,,,,,,,,,,s,0,0.434102058411,0.513154983521,0.00156807899475,,,,,,,,,,,,,,,,,,,,,,,,,,,,,LearningTask,,,59.8154042738,3,2015_Apr_12_1910,61,
200,w,200,,,,0,2,2,4,1,0,1,0,None,,,,,,,,,,,,,,,,,,,,,,,,,,,,,,,,,,,,w,1,0.333884000778,0.515918016434,0.00144696235657,,,,,,,,,,,,,,,,,,,,,,,,,,,,,LearningTask,,,59.8154042738,3,2015_Apr_12_1910,61,
200,w,200,,,,0,2,2,4,,,,,,,,,,,,,,,,,,,,,,,,,,,,,,,,,,,,,,,,,,,,,,,,,,,,,,,,,,,,,,,,,,,,,,,,,,LearningTask,,,59.8154042738,3,2015_Apr_12_1910,61,
-200,q,200,,,,0,3,3,9,0,0,0,0,None,,,,,,,,,,,,,,,,,,,,,,,,,,,,,,,,,,,,q,1,0.383681058884,0.506789922714,0.00155901908875,,,,,,,,,,,,,,,,,,,,,,,,,,,,,LearningTask,,,59.8154042738,3,2015_Apr_12_1910,61,
-200,q,200,,,,0,3,3,9,,,,,,,,,,,,,,,,,,,,,,,,,,,,,,,,,,,,,,,,,,,,,,,,,,,,,,,,,,,,,,,,,,,,,,,,,,LearningTask,,,59.8154042738,3,2015_Apr_12_1910,61,
200,s,-200,,,,0,4,4,6,0,0,0,0,None,,,,,,,,,,,,,,,,,,,,,,,,,,,,,,,,,,,,s,1,0.368173837662,0.513117074966,0.000974893569946,,,,,,,,,,,,,,,,,,,,,,,,,,,,,LearningTask,,,59.8154042738,3,2015_Apr_12_1910,61,
200,s,-200,,,,0,4,4,6,,,,,,,,,,,,,,,,,,,,,,,,,,,,,,,,,,,,,,,,,,,,,,,,,,,,,,,,,,,,,,,,,,,,,,,,,,LearningTask,,,59.8154042738,3,2015_Apr_12_1910,61,
200,w,200,,,,0,5,5,0,0,0,0,0,None,,,,,,,,,,,,,,,,,,,,,,,,,,,,,,,,,,,,w,1,0.300999879837,0.511781930923,0.00155305862427,,,,,,,,,,,,,,,,,,,,,,,,,,,,,LearningTask,,,59.8154042738,3,2015_Apr_12_1910,61,
200,w,200,,,,0,5,5,0,,,,,,,,,,,,,,,,,,,,,,,,,,,,,,,,,,,,,,,,,,,,,,,,,,,,,,,,,,,,,,,,,,,,,,,,,,LearningTask,,,59.8154042738,3,2015_Apr_12_1910,61,
-200,a,-200,,,,0,6,6,7,0,0,0,0,None,,,,,,,,,,,,,,,,,,,,,,,,,,,,,,,,,,,,a,1,0.367491006851,0.500935077667,0.000951051712036,,,,,,,,,,,,,,,,,,,,,,,,,,,,,LearningTask,,,59.8154042738,3,2015_Apr_12_1910,61,
-200,a,-200,,,,0,6,6,7,,,,,,,,,,,,,,,,,,,,,,,,,,,,,,,,,,,,,,,,,,,,,,,,,,,,,,,,,,,,,,,,,,,,,,,,,,LearningTask,,,59.8154042738,3,2015_Apr_12_1910,61,
-200,q,200,,,,0,7,7,5,0,0,0,0,None,,,,,,,,,,,,,,,,,,,,,,,,,,,,,,,,,,,,q,1,0.450465202332,0.504409074783,0.000916004180908,,,,,,,,,,,,,,,,,,,,,,,,,,,,,LearningTask,,,59.8154042738,3,2015_Apr_12_1910,61,
-200,q,200,,,,0,7,7,5,,,,,,,,,,,,,,,,,,,,,,,,,,,,,,,,,,,,,,,,,,,,,,,,,,,,,,,,,,,,,,,,,,,,,,,,,,LearningTask,,,59.8154042738,3,2015_Apr_12_1910,61,
200,s,-200,,,,0,8,8,2,0,0,0,0,None,,,,,,,,,,,,,,,,,,,,,,,,,,,,,,,,,,,,w,0,0.600609064102,0.50053691864,0.00156497955322,,,,,,,,,,,,,,,,,,,,,,,,,,,,,LearningTask,,,59.8154042738,3,2015_Apr_12_1910,61,
200,s,-200,,,,0,8,8,2,1,0,1,0,None,,,,,,,,,,,,,,,,,,,,,,,,,,,,,,,,,,,,s,1,0.216467142105,0.500443935394,0.00132894515991,,,,,,,,,,,,,,,,,,,,,,,,,,,,,LearningTask,,,59.8154042738,3,2015_Apr_12_1910,61,
200,s,-200,,,,0,8,8,2,,,,,,,,,,,,,,,,,,,,,,,,,,,,,,,,,,,,,,,,,,,,,,,,,,,,,,,,,,,,,,,,,,,,,,,,,,LearningTask,,,59.8154042738,3,2015_Apr_12_1910,61,
-200,q,200,,,,0,9,9,1,0,0,0,0,None,,,,,,,,,,,,,,,,,,,,,,,,,,,,,,,,,,,,None,0,,0.509817123413,0.00157713890076,,,,,,,,,,,,,,,,,,,,,,,,,,,,,LearningTask,,,59.8154042738,3,2015_Apr_12_1910,61,
-200,q,200,,,,0,9,9,1,1,0,1,0,None,,,,,,,,,,,,,,,,,,,,,,,,,,,,,,,,,,,,q,1,0.300399065018,0.516644001007,0.00112009048462,,,,,,,,,,,,,,,,,,,,,,,,,,,,,LearningTask,,,59.8154042738,3,2015_Apr_12_1910,61,
-200,q,200,,,,0,9,9,1,,,,,,,,,,,,,,,,,,,,,,,,,,,,,,,,,,,,,,,,,,,,,,,,,,,,,,,,,,,,,,,,,,,,,,,,,,LearningTask,,,59.8154042738,3,2015_Apr_12_1910,61,
,,,z,0,-200,,,,,,,,,,0,0,0,0,,,,,,,,,,,,,,,,,,,,,,,,,,,,,,,,,,,,,-1,go,trianglegray.gif,z,1,0.6176841259,1,0.6176841259,1,0,0,0,0,0.00128293037415,0.510951042175,,,,,,,,,,,,,,LearningTask,,,59.8154042738,3,2015_Apr_12_1910,61,
,,,z,0,-200,,,,,,,,,,0,1,1,0,,,,,,,,,,,,,,,,,,,,,,,,,,,,,,,,,,,,,0.25,stop,linemagenta.gif,z,1,0.518084049225,1,0.6176841259,1,1,0,0,0,0.00171089172363,0.51432800293,0.764408111572,,,,,,,,,,,,,LearningTask,,,59.8154042738,3,2015_Apr_12_1910,61,
,,,z,0,-200,,,,,,,,,,1,0,2,0,,,,,,,,,,,,,,,,,,,,,,,,,,,,,,,,,,,,,0.25,stop,circleorange.gif,None,0,,1,0.6176841259,1,2,1,0,0,0.00120401382446,0.512781143188,0.764520168304,,,,,,,,,,,,,LearningTask,,,59.8154042738,3,2015_Apr_12_1910,61,
,,,z,0,-200,,,,,,,,,,1,1,3,0,,,,,,,,,,,,,,,,,,,,,,,,,,,,,,,,,,,,,0.25,stop,hexagoncyan.gif,z,1,0.551831960678,1,0.6176841259,1,3,1,0,0,0.00123286247253,0.513533830643,0.763864994049,,,,,,,,,,,,,LearningTask,,,59.8154042738,3,2015_Apr_12_1910,61,
,,,z,0,-200,,,,,,,,,,2,0,4,0,,,,,,,,,,,,,,,,,,,,,,,,,,,,,,,,,,,,,-1,go,squareblue.gif,None,0,,2,0.6176841259,1,3,1,1,0,0.00133991241455,0.513140916824,,,,,,,,,,,,,,LearningTask,,,59.8154042738,3,2015_Apr_12_1910,61,
,,,m,0,200,,,,,,,,,,2,1,5,1,,,,,,,,,,,,,,,,,,,,,,,,,,,,,,,,,,,,,-1,go,invertedtrianglegreen.gif,m,1,0.450959920883,3,1.06864404678,2,3,1,1,0,0.00124001502991,0.513221979141,,,,,,,,,,,,,,LearningTask,,,59.8154042738,3,2015_Apr_12_1910,61,
,,,m,0,200,,,,,,,,,,3,0,6,1,,,,,,,,,,,,,,,,,,,,,,,,,,,,,,,,,,,,,-1,go,hexagoncyan.gif,m,1,0.500993013382,4,1.56963706017,3,3,1,1,0,0.00144004821777,0.513782024384,,,,,,,,,,,,,,LearningTask,,,59.8154042738,3,2015_Apr_12_1910,61,
,,,m,0,200,,,,,,,,,,3,1,7,1,,,,,,,,,,,,,,,,,,,,,,,,,,,,,,,,,,,,,0.25,stop,diamondyellow.gif,None,0,,4,1.56963706017,3,4,2,1,0,0.0014328956604,0.512812852859,0.762974977493,,,,,,,,,,,,,LearningTask,,,59.8154042738,3,2015_Apr_12_1910,61,
,,,m,0,200,,,,,,,,,,4,0,8,1,,,,,,,,,,,,,,,,,,,,,,,,,,,,,,,,,,,,,-1,go,squareblue.gif,m,1,0.566578149796,5,2.13621520996,4,4,2,1,0,0.00125288963318,0.513733863831,,,,,,,,,,,,,,LearningTask,,,59.8154042738,3,2015_Apr_12_1910,61,
,,,m,0,200,,,,,,,,,,4,1,9,1,,,,,,,,,,,,,,,,,,,,,,,,,,,,,,,,,,,,,-1,go,crosswhite.gif,m,1,0.833961009979,6,2.97017621994,5,4,2,1,0,0.00144410133362,0.513546943665,,,,,,,,,,,,,,LearningTask,,,59.8154042738,3,2015_Apr_12_1910,61,
,,,,,,,,,,,,,,,,,,,,,,,,,,,,,,,,,,,,,,,,,,,,,,,,,,,,,,,,,,,,,,,,,,,,,,,space,41.8557980061,,,,,,,,,,,LearningTask,,,59.8154042738,3,2015_Apr_12_1910,61,
,,,,,,,,,,,,,,,,,,,,,,,,,,,,,,,,,,,,,,,,,,,,,,,,space,1.3164961338,,,,,,,,,,,,,,,,,,,,,,,,,,,,,,,,,,LearningTask,,,59.8154042738,3,2015_Apr_12_1910,61,
-200,a,-200,,,,,,,,,,,,,,,,,0,0,0,0,0,0,0,3,0,0,0,0,None,,,,,,,,,,,,,,,,,,,a,1,0.451194047928,0.507441997528,0.00123190879822,,,,,,,,,,,,,,,,,,,2.02,,,,,,,,,,LearningTask,,,59.8154042738,3,2015_Apr_12_1910,61,
-200,a,-200,,,,,,,,,,,,,,,,,0,0,0,0,0,0,0,3,,,,,,,,,,,,,,,,,,,,,,,,,,,,,,,,,,,,,,,,,,,,,,,,,,,,,,,,,LearningTask,,,59.8154042738,3,2015_Apr_12_1910,61,
-200,a,-200,,,,,,,,,,,,,,,,,0,0,0,0,0,1,1,3,0,0,0,0,None,,,,,,,,,,,,,,,,,,,a,1,0.601971149445,0.515827894211,0.000978946685791,,,,,,,,,,,,,,,,,,,0.76,,,,,,,,,,LearningTask,,,59.8154042738,3,2015_Apr_12_1910,61,
-200,a,-200,,,,,,,,,,,,,,,,,0,0,0,0,0,1,1,3,,,,,,,,,,,,,,,,,,,,,,,,,,,,,,,,,,,,,,,,,,,,,,,,,,,,,,,,,LearningTask,,,59.8154042738,3,2015_Apr_12_1910,61,
-200,q,200,,,,,,,,,,,,,,,,,0,0,0,0,0,2,2,1,0,0,0,0,None,,,,,,,,,,,,,,,,,,,s,0,0.417442083359,0.504142999649,0.00115084648132,,,,,,,,,,,,,,,,,,,0.8,,,,,,,,,,LearningTask,,,59.8154042738,3,2015_Apr_12_1910,61,
-200,q,200,,,,,,,,,,,,,,,,,0,0,0,0,0,2,2,1,1,0,1,0,None,,,,,,,,,,,,,,,,,,,q,1,0.283756971359,0.516201972961,0.001051902771,,,,,,,,,,,,,,,,,,,1.18,,,,,,,,,,LearningTask,,,59.8154042738,3,2015_Apr_12_1910,61,
-200,q,200,,,,,,,,,,,,,,,,,0,0,0,0,0,2,2,1,,,,,,,,,,,,,,,,,,,,,,,,,,,,,,,,,,,,,,,,,,,,,,,,,,,,,,,,,LearningTask,,,59.8154042738,3,2015_Apr_12_1910,61,
-200,q,200,,,,,,,,,,,,,,,,,0,0,0,0,0,3,3,1,0,0,0,0,None,,,,,,,,,,,,,,,,,,,q,1,0.400764942169,0.509782075882,0.000921010971069,,,,,,,,,,,,,,,,,,,4.2,,,,,,,,,,LearningTask,,,59.8154042738,3,2015_Apr_12_1910,61,
-200,q,200,,,,,,,,,,,,,,,,,0,0,0,0,0,3,3,1,,,,,,,,,,,,,,,,,,,,,,,,,,,,,,,,,,,,,,,,,,,,,,,,,,,,,,,,,LearningTask,,,59.8154042738,3,2015_Apr_12_1910,61,
200,w,200,,,,,,,,,,,,,,,,,0,0,0,0,1,0,4,0,0,0,0,0,None,,,,,,,,,,,,,,,,,,,w,1,0.351290225983,0.507827997208,0.000968933105469,,,,,,,,,,,,,,,,,,,1.18,,,,,,,,,,LearningTask,,,59.8154042738,3,2015_Apr_12_1910,61,
200,w,200,,,,,,,,,,,,,,,,,0,0,0,0,1,0,4,0,,,,,,,,,,,,,,,,,,,,,,,,,,,,,,,,,,,,,,,,,,,,,,,,,,,,,,,,,LearningTask,,,59.8154042738,3,2015_Apr_12_1910,61,
-200,a,-200,,,,,,,,,,,,,,,,,0,0,0,0,1,1,5,3,0,0,0,0,None,,,,,,,,,,,,,,,,,,,a,1,0.417896986008,0.505432128906,0.000931978225708,,,,,,,,,,,,,,,,,,,2.17,,,,,,,,,,LearningTask,,,59.8154042738,3,2015_Apr_12_1910,61,
-200,a,-200,,,,,,,,,,,,,,,,,0,0,0,0,1,1,5,3,,,,,,,,,,,,,,,,,,,,,,,,,,,,,,,,,,,,,,,,,,,,,,,,,,,,,,,,,LearningTask,,,59.8154042738,3,2015_Apr_12_1910,61,
200,s,-200,,,,,,,,,,,,,,,,,0,0,0,0,1,2,6,2,0,0,0,0,None,,,,,,,,,,,,,,,,,,,s,1,0.334438085556,0.504452943802,0.00095009803772,,,,,,,,,,,,,,,,,,,0.7,,,,,,,,,,LearningTask,,,59.8154042738,3,2015_Apr_12_1910,61,
200,s,-200,,,,,,,,,,,,,,,,,0,0,0,0,1,2,6,2,,,,,,,,,,,,,,,,,,,,,,,,,,,,,,,,,,,,,,,,,,,,,,,,,,,,,,,,,LearningTask,,,59.8154042738,3,2015_Apr_12_1910,61,
200,w,200,,,,,,,,,,,,,,,,,0,0,0,0,1,3,7,0,0,0,0,0,None,,,,,,,,,,,,,,,,,,,w,1,0.28452205658,0.503175973892,0.00121283531189,,,,,,,,,,,,,,,,,,,0.95,,,,,,,,,,LearningTask,,,59.8154042738,3,2015_Apr_12_1910,61,
200,w,200,,,,,,,,,,,,,,,,,0,0,0,0,1,3,7,0,,,,,,,,,,,,,,,,,,,,,,,,,,,,,,,,,,,,,,,,,,,,,,,,,,,,,,,,,LearningTask,,,59.8154042738,3,2015_Apr_12_1910,61,
-200,a,-200,,,,,,,,,,,,,,,,,0,0,0,0,2,0,8,3,0,0,0,0,None,,,,,,,,,,,,,,,,,,,a,1,0.350625991821,0.500343084335,0.00142812728882,,,,,,,,,,,,,,,,,,,1.07,,,,,,,,,,LearningTask,,,59.8154042738,3,2015_Apr_12_1910,61,
-200,a,-200,,,,,,,,,,,,,,,,,0,0,0,0,2,0,8,3,,,,,,,,,,,,,,,,,,,,,,,,,,,,,,,,,,,,,,,,,,,,,,,,,,,,,,,,,LearningTask,,,59.8154042738,3,2015_Apr_12_1910,61,
200,s,-200,,,,,,,,,,,,,,,,,0,0,0,0,2,1,9,2,0,0,0,0,None,,,,,,,,,,,,,,,,,,,s,1,0.367707967758,0.500957965851,0.000924825668335,,,,,,,,,,,,,,,,,,,4.06,,,,,,,,,,LearningTask,,,59.8154042738,3,2015_Apr_12_1910,61,
200,s,-200,,,,,,,,,,,,,,,,,0,0,0,0,2,1,9,2,,,,,,,,,,,,,,,,,,,,,,,,,,,,,,,,,,,,,,,,,,,,,,,,,,,,,,,,,LearningTask,,,59.8154042738,3,2015_Apr_12_1910,61,
-200,a,-200,,,,,,,,,,,,,,,,,0,0,0,0,2,2,10,3,0,0,0,0,None,,,,,,,,,,,,,,,,,,,a,1,0.367230176926,0.509671926498,0.000933885574341,,,,,,,,,,,,,,,,,,,1.96,,,,,,,,,,LearningTask,,,59.8154042738,3,2015_Apr_12_1910,61,
-200,a,-200,,,,,,,,,,,,,,,,,0,0,0,0,2,2,10,3,,,,,,,,,,,,,,,,,,,,,,,,,,,,,,,,,,,,,,,,,,,,,,,,,,,,,,,,,LearningTask,,,59.8154042738,3,2015_Apr_12_1910,61,
200,s,-200,,,,,,,,,,,,,,,,,0,0,0,0,2,3,11,2,0,0,0,0,None,,,,,,,,,,,,,,,,,,,s,1,0.367213010788,0.512753009796,0.00092601776123,,,,,,,,,,,,,,,,,,,2.12,,,,,,,,,,LearningTask,,,59.8154042738,3,2015_Apr_12_1910,61,
200,s,-200,,,,,,,,,,,,,,,,,0,0,0,0,2,3,11,2,,,,,,,,,,,,,,,,,,,,,,,,,,,,,,,,,,,,,,,,,,,,,,,,,,,,,,,,,LearningTask,,,59.8154042738,3,2015_Apr_12_1910,61,
-200,a,-200,,,,,,,,,,,,,,,,,0,0,0,0,3,0,12,3,0,0,0,0,None,,,,,,,,,,,,,,,,,,,None,0,,0.510576963425,0.000915050506592,,,,,,,,,,,,,,,,,,,0.57,,,,,,,,,,LearningTask,,,59.8154042738,3,2015_Apr_12_1910,61,
-200,a,-200,,,,,,,,,,,,,,,,,0,0,0,0,3,0,12,3,1,0,1,0,None,,,,,,,,,,,,,,,,,,,a,1,0.333623886108,0.515966892242,0.00174307823181,,,,,,,,,,,,,,,,,,,0.62,,,,,,,,,,LearningTask,,,59.8154042738,3,2015_Apr_12_1910,61,
-200,a,-200,,,,,,,,,,,,,,,,,0,0,0,0,3,0,12,3,,,,,,,,,,,,,,,,,,,,,,,,,,,,,,,,,,,,,,,,,,,,,,,,,,,,,,,,,LearningTask,,,59.8154042738,3,2015_Apr_12_1910,61,
-200,a,-200,,,,,,,,,,,,,,,,,0,0,0,0,3,1,13,3,0,0,0,0,None,,,,,,,,,,,,,,,,,,,a,1,0.366501092911,0.511501073837,0.000925064086914,,,,,,,,,,,,,,,,,,,1.21,,,,,,,,,,LearningTask,,,59.8154042738,3,2015_Apr_12_1910,61,
-200,a,-200,,,,,,,,,,,,,,,,,0,0,0,0,3,1,13,3,,,,,,,,,,,,,,,,,,,,,,,,,,,,,,,,,,,,,,,,,,,,,,,,,,,,,,,,,LearningTask,,,59.8154042738,3,2015_Apr_12_1910,61,
-200,q,200,,,,,,,,,,,,,,,,,0,0,0,0,3,2,14,1,0,0,0,0,None,,,,,,,,,,,,,,,,,,,q,1,0.451400995255,0.510960817337,0.000952959060669,,,,,,,,,,,,,,,,,,,0.91,,,,,,,,,,LearningTask,,,59.8154042738,3,2015_Apr_12_1910,61,
-200,q,200,,,,,,,,,,,,,,,,,0,0,0,0,3,2,14,1,,,,,,,,,,,,,,,,,,,,,,,,,,,,,,,,,,,,,,,,,,,,,,,,,,,,,,,,,LearningTask,,,59.8154042738,3,2015_Apr_12_1910,61,
200,w,200,,,,,,,,,,,,,,,,,0,0,0,0,3,3,15,0,0,0,0,0,None,,,,,,,,,,,,,,,,,,,w,1,0.317708969116,0.506017923355,0.000911951065063,,,,,,,,,,,,,,,,,,,0.88,,,,,,,,,,LearningTask,,,59.8154042738,3,2015_Apr_12_1910,61,
200,w,200,,,,,,,,,,,,,,,,,0,0,0,0,3,3,15,0,,,,,,,,,,,,,,,,,,,,,,,,,,,,,,,,,,,,,,,,,,,,,,,,,,,,,,,,,LearningTask,,,59.8154042738,3,2015_Apr_12_1910,61,
200,s,-200,,,,,,,,,,,,,,,,,0,0,0,0,4,0,16,2,0,0,0,0,None,,,,,,,,,,,,,,,,,,,s,1,0.317665100098,0.50189614296,0.000939130783081,,,,,,,,,,,,,,,,,,,1.21,,,,,,,,,,LearningTask,,,59.8154042738,3,2015_Apr_12_1910,61,
200,s,-200,,,,,,,,,,,,,,,,,0,0,0,0,4,0,16,2,,,,,,,,,,,,,,,,,,,,,,,,,,,,,,,,,,,,,,,,,,,,,,,,,,,,,,,,,LearningTask,,,59.8154042738,3,2015_Apr_12_1910,61,
200,s,-200,,,,,,,,,,,,,,,,,0,0,0,0,4,1,17,2,0,0,0,0,None,,,,,,,,,,,,,,,,,,,s,1,0.417616844177,0.504189968109,0.00098180770874,,,,,,,,,,,,,,,,,,,0.84,,,,,,,,,,LearningTask,,,59.8154042738,3,2015_Apr_12_1910,61,
200,s,-200,,,,,,,,,,,,,,,,,0,0,0,0,4,1,17,2,,,,,,,,,,,,,,,,,,,,,,,,,,,,,,,,,,,,,,,,,,,,,,,,,,,,,,,,,LearningTask,,,59.8154042738,3,2015_Apr_12_1910,61,
200,s,-200,,,,,,,,,,,,,,,,,0,0,0,0,4,2,18,2,0,0,0,0,None,,,,,,,,,,,,,,,,,,,s,1,0.350589036942,0.510254859924,0.0010199546814,,,,,,,,,,,,,,,,,,,2.17,,,,,,,,,,LearningTask,,,59.8154042738,3,2015_Apr_12_1910,61,
200,s,-200,,,,,,,,,,,,,,,,,0,0,0,0,4,2,18,2,,,,,,,,,,,,,,,,,,,,,,,,,,,,,,,,,,,,,,,,,,,,,,,,,,,,,,,,,LearningTask,,,59.8154042738,3,2015_Apr_12_1910,61,
-200,a,-200,,,,,,,,,,,,,,,,,0,0,0,0,4,3,19,3,0,0,0,0,None,,,,,,,,,,,,,,,,,,,a,1,0.43431687355,0.504050016403,0.00118494033813,,,,,,,,,,,,,,,,,,,3.78,,,,,,,,,,LearningTask,,,59.8154042738,3,2015_Apr_12_1910,61,
-200,a,-200,,,,,,,,,,,,,,,,,0,0,0,0,4,3,19,3,,,,,,,,,,,,,,,,,,,,,,,,,,,,,,,,,,,,,,,,,,,,,,,,,,,,,,,,,LearningTask,,,59.8154042738,3,2015_Apr_12_1910,61,
200,w,200,,,,,,,,,,,,,,,,,0,0,0,0,5,0,20,0,0,0,0,0,None,,,,,,,,,,,,,,,,,,,w,1,0.367947101593,0.513514995575,0.000937938690186,,,,,,,,,,,,,,,,,,,4.15,,,,,,,,,,LearningTask,,,59.8154042738,3,2015_Apr_12_1910,61,
200,w,200,,,,,,,,,,,,,,,,,0,0,0,0,5,0,20,0,,,,,,,,,,,,,,,,,,,,,,,,,,,,,,,,,,,,,,,,,,,,,,,,,,,,,,,,,LearningTask,,,59.8154042738,3,2015_Apr_12_1910,61,
200,w,200,,,,,,,,,,,,,,,,,0,0,0,0,5,1,21,0,0,0,0,0,None,,,,,,,,,,,,,,,,,,,w,1,0.368208885193,0.506129980087,0.00124001502991,,,,,,,,,,,,,,,,,,,3.86,,,,,,,,,,LearningTask,,,59.8154042738,3,2015_Apr_12_1910,61,
200,w,200,,,,,,,,,,,,,,,,,0,0,0,0,5,1,21,0,,,,,,,,,,,,,,,,,,,,,,,,,,,,,,,,,,,,,,,,,,,,,,,,,,,,,,,,,LearningTask,,,59.8154042738,3,2015_Apr_12_1910,61,
-200,a,-200,,,,,,,,,,,,,,,,,0,0,0,0,5,2,22,3,0,0,0,0,None,,,,,,,,,,,,,,,,,,,a,1,0.468058109283,0.510056018829,0.00092601776123,,,,,,,,,,,,,,,,,,,3.99,,,,,,,,,,LearningTask,,,59.8154042738,3,2015_Apr_12_1910,61,
-200,a,-200,,,,,,,,,,,,,,,,,0,0,0,0,5,2,22,3,,,,,,,,,,,,,,,,,,,,,,,,,,,,,,,,,,,,,,,,,,,,,,,,,,,,,,,,,LearningTask,,,59.8154042738,3,2015_Apr_12_1910,61,
-200,a,-200,,,,,,,,,,,,,,,,,0,0,0,0,5,3,23,3,0,0,0,0,None,,,,,,,,,,,,,,,,,,,a,1,0.484332084656,0.512798070908,0.000920057296753,,,,,,,,,,,,,,,,,,,0.57,,,,,,,,,,LearningTask,,,59.8154042738,3,2015_Apr_12_1910,61,
-200,a,-200,,,,,,,,,,,,,,,,,0,0,0,0,5,3,23,3,,,,,,,,,,,,,,,,,,,,,,,,,,,,,,,,,,,,,,,,,,,,,,,,,,,,,,,,,LearningTask,,,59.8154042738,3,2015_Apr_12_1910,61,
200,w,200,,,,,,,,,,,,,,,,,0,0,0,0,6,0,24,0,0,0,0,0,None,,,,,,,,,,,,,,,,,,,w,1,0.350221157074,0.512326002121,0.000913858413696,,,,,,,,,,,,,,,,,,,1.13,,,,,,,,,,LearningTask,,,59.8154042738,3,2015_Apr_12_1910,61,
200,w,200,,,,,,,,,,,,,,,,,0,0,0,0,6,0,24,0,,,,,,,,,,,,,,,,,,,,,,,,,,,,,,,,,,,,,,,,,,,,,,,,,,,,,,,,,LearningTask,,,59.8154042738,3,2015_Apr_12_1910,61,
200,w,200,,,,,,,,,,,,,,,,,0,0,0,0,6,1,25,0,0,0,0,0,None,,,,,,,,,,,,,,,,,,,s,0,0.484470129013,0.501027107239,0.000930070877075,,,,,,,,,,,,,,,,,,,2.11,,,,,,,,,,LearningTask,,,59.8154042738,3,2015_Apr_12_1910,61,
200,w,200,,,,,,,,,,,,,,,,,0,0,0,0,6,1,25,0,1,0,1,0,None,,,,,,,,,,,,,,,,,,,w,1,0.15011882782,0.516756057739,0.00127410888672,,,,,,,,,,,,,,,,,,,1.77,,,,,,,,,,LearningTask,,,59.8154042738,3,2015_Apr_12_1910,61,
200,w,200,,,,,,,,,,,,,,,,,0,0,0,0,6,1,25,0,,,,,,,,,,,,,,,,,,,,,,,,,,,,,,,,,,,,,,,,,,,,,,,,,,,,,,,,,LearningTask,,,59.8154042738,3,2015_Apr_12_1910,61,
200,s,-200,,,,,,,,,,,,,,,,,0,0,0,0,6,2,26,2,0,0,0,0,None,,,,,,,,,,,,,,,,,,,s,1,0.533804178238,0.514029026031,0.000927925109863,,,,,,,,,,,,,,,,,,,1.9,,,,,,,,,,LearningTask,,,59.8154042738,3,2015_Apr_12_1910,61,
200,s,-200,,,,,,,,,,,,,,,,,0,0,0,0,6,2,26,2,,,,,,,,,,,,,,,,,,,,,,,,,,,,,,,,,,,,,,,,,,,,,,,,,,,,,,,,,LearningTask,,,59.8154042738,3,2015_Apr_12_1910,61,
-200,q,200,,,,,,,,,,,,,,,,,0,0,0,0,6,3,27,1,0,0,0,0,None,,,,,,,,,,,,,,,,,,,q,1,0.350462913513,0.51583814621,0.000933170318604,,,,,,,,,,,,,,,,,,,0.38,,,,,,,,,,LearningTask,,,59.8154042738,3,2015_Apr_12_1910,61,
-200,q,200,,,,,,,,,,,,,,,,,0,0,0,0,6,3,27,1,,,,,,,,,,,,,,,,,,,,,,,,,,,,,,,,,,,,,,,,,,,,,,,,,,,,,,,,,LearningTask,,,59.8154042738,3,2015_Apr_12_1910,61,
200,s,-200,,,,,,,,,,,,,,,,,0,0,0,0,7,0,28,2,0,0,0,0,None,,,,,,,,,,,,,,,,,,,s,1,0.350795030594,0.511474847794,0.00111103057861,,,,,,,,,,,,,,,,,,,1.89,,,,,,,,,,LearningTask,,,59.8154042738,3,2015_Apr_12_1910,61,
200,s,-200,,,,,,,,,,,,,,,,,0,0,0,0,7,0,28,2,,,,,,,,,,,,,,,,,,,,,,,,,,,,,,,,,,,,,,,,,,,,,,,,,,,,,,,,,LearningTask,,,59.8154042738,3,2015_Apr_12_1910,61,
200,s,-200,,,,,,,,,,,,,,,,,0,0,0,0,7,1,29,2,0,0,0,0,None,,,,,,,,,,,,,,,,,,,s,1,0.334182977676,0.512425899506,0.000927925109863,,,,,,,,,,,,,,,,,,,1.06,,,,,,,,,,LearningTask,,,59.8154042738,3,2015_Apr_12_1910,61,
200,s,-200,,,,,,,,,,,,,,,,,0,0,0,0,7,1,29,2,,,,,,,,,,,,,,,,,,,,,,,,,,,,,,,,,,,,,,,,,,,,,,,,,,,,,,,,,LearningTask,,,59.8154042738,3,2015_Apr_12_1910,61,
200,s,-200,,,,,,,,,,,,,,,,,0,0,0,0,7,2,30,2,0,0,0,0,None,,,,,,,,,,,,,,,,,,,s,1,0.351361036301,0.503840923309,0.000949859619141,,,,,,,,,,,,,,,,,,,0.5,,,,,,,,,,LearningTask,,,59.8154042738,3,2015_Apr_12_1910,61,
200,s,-200,,,,,,,,,,,,,,,,,0,0,0,0,7,2,30,2,,,,,,,,,,,,,,,,,,,,,,,,,,,,,,,,,,,,,,,,,,,,,,,,,,,,,,,,,LearningTask,,,59.8154042738,3,2015_Apr_12_1910,61,
-200,q,200,,,,,,,,,,,,,,,,,0,0,0,0,7,3,31,1,0,0,0,0,None,,,,,,,,,,,,,,,,,,,q,1,0.300215005875,0.515938043594,0.00093412399292,,,,,,,,,,,,,,,,,,,0.35,,,,,,,,,,LearningTask,,,59.8154042738,3,2015_Apr_12_1910,61,
-200,q,200,,,,,,,,,,,,,,,,,0,0,0,0,7,3,31,1,,,,,,,,,,,,,,,,,,,,,,,,,,,,,,,,,,,,,,,,,,,,,,,,,,,,,,,,,LearningTask,,,59.8154042738,3,2015_Apr_12_1910,61,
-200,q,200,,,,,,,,,,,,,,,,,0,0,0,0,8,0,32,1,0,0,0,0,None,,,,,,,,,,,,,,,,,,,q,1,0.350728034973,0.514642000198,0.00100708007812,,,,,,,,,,,,,,,,,,,0.77,,,,,,,,,,LearningTask,,,59.8154042738,3,2015_Apr_12_1910,61,
-200,q,200,,,,,,,,,,,,,,,,,0,0,0,0,8,0,32,1,,,,,,,,,,,,,,,,,,,,,,,,,,,,,,,,,,,,,,,,,,,,,,,,,,,,,,,,,LearningTask,,,59.8154042738,3,2015_Apr_12_1910,61,
200,w,200,,,,,,,,,,,,,,,,,0,0,0,0,8,1,33,0,0,0,0,0,None,,,,,,,,,,,,,,,,,,,w,1,0.349822998047,0.515545129776,0.000961065292358,,,,,,,,,,,,,,,,,,,3.84,,,,,,,,,,LearningTask,,,59.8154042738,3,2015_Apr_12_1910,61,
200,w,200,,,,,,,,,,,,,,,,,0,0,0,0,8,1,33,0,,,,,,,,,,,,,,,,,,,,,,,,,,,,,,,,,,,,,,,,,,,,,,,,,,,,,,,,,LearningTask,,,59.8154042738,3,2015_Apr_12_1910,61,
-200,q,200,,,,,,,,,,,,,,,,,0,0,0,0,8,2,34,1,0,0,0,0,None,,,,,,,,,,,,,,,,,,,q,1,0.334100961685,0.511078834534,0.00122404098511,,,,,,,,,,,,,,,,,,,0.72,,,,,,,,,,LearningTask,,,59.8154042738,3,2015_Apr_12_1910,61,
-200,q,200,,,,,,,,,,,,,,,,,0,0,0,0,8,2,34,1,,,,,,,,,,,,,,,,,,,,,,,,,,,,,,,,,,,,,,,,,,,,,,,,,,,,,,,,,LearningTask,,,59.8154042738,3,2015_Apr_12_1910,61,
200,s,-200,,,,,,,,,,,,,,,,,0,0,0,0,8,3,35,2,0,0,0,0,None,,,,,,,,,,,,,,,,,,,s,1,0.367805957794,0.516792058945,0.000930070877075,,,,,,,,,,,,,,,,,,,0.67,,,,,,,,,,LearningTask,,,59.8154042738,3,2015_Apr_12_1910,61,
200,s,-200,,,,,,,,,,,,,,,,,0,0,0,0,8,3,35,2,,,,,,,,,,,,,,,,,,,,,,,,,,,,,,,,,,,,,,,,,,,,,,,,,,,,,,,,,LearningTask,,,59.8154042738,3,2015_Apr_12_1910,61,
-200,a,-200,,,,,,,,,,,,,,,,,0,0,0,0,9,0,36,3,0,0,0,0,None,,,,,,,,,,,,,,,,,,,a,1,0.500468015671,0.501634120941,0.00091814994812,,,,,,,,,,,,,,,,,,,1.79,,,,,,,,,,LearningTask,,,59.8154042738,3,2015_Apr_12_1910,61,
-200,a,-200,,,,,,,,,,,,,,,,,0,0,0,0,9,0,36,3,,,,,,,,,,,,,,,,,,,,,,,,,,,,,,,,,,,,,,,,,,,,,,,,,,,,,,,,,LearningTask,,,59.8154042738,3,2015_Apr_12_1910,61,
200,s,-200,,,,,,,,,,,,,,,,,0,0,0,0,9,1,37,2,0,0,0,0,None,,,,,,,,,,,,,,,,,,,s,1,0.401117086411,0.510051012039,0.00111389160156,,,,,,,,,,,,,,,,,,,0.78,,,,,,,,,,LearningTask,,,59.8154042738,3,2015_Apr_12_1910,61,
200,s,-200,,,,,,,,,,,,,,,,,0,0,0,0,9,1,37,2,,,,,,,,,,,,,,,,,,,,,,,,,,,,,,,,,,,,,,,,,,,,,,,,,,,,,,,,,LearningTask,,,59.8154042738,3,2015_Apr_12_1910,61,
-200,q,200,,,,,,,,,,,,,,,,,0,0,0,0,9,2,38,1,0,0,0,0,None,,,,,,,,,,,,,,,,,,,q,1,0.318012952805,0.503946065903,0.000924110412598,,,,,,,,,,,,,,,,,,,0.75,,,,,,,,,,LearningTask,,,59.8154042738,3,2015_Apr_12_1910,61,
-200,q,200,,,,,,,,,,,,,,,,,0,0,0,0,9,2,38,1,,,,,,,,,,,,,,,,,,,,,,,,,,,,,,,,,,,,,,,,,,,,,,,,,,,,,,,,,LearningTask,,,59.8154042738,3,2015_Apr_12_1910,61,
-200,a,-200,,,,,,,,,,,,,,,,,0,0,0,0,9,3,39,3,0,0,0,0,None,,,,,,,,,,,,,,,,,,,a,1,0.667500019073,0.509083986282,0.00111508369446,,,,,,,,,,,,,,,,,,,0.45,,,,,,,,,,LearningTask,,,59.8154042738,3,2015_Apr_12_1910,61,
-200,a,-200,,,,,,,,,,,,,,,,,0,0,0,0,9,3,39,3,,,,,,,,,,,,,,,,,,,,,,,,,,,,,,,,,,,,,,,,,,,,,,,,,,,,,,,,,LearningTask,,,59.8154042738,3,2015_Apr_12_1910,61,
-200,a,-200,,,,,,,,,,,,,,,,,0,0,0,0,10,0,40,3,0,0,0,0,None,,,,,,,,,,,,,,,,,,,a,1,0.367266893387,0.513784885406,0.00104594230652,,,,,,,,,,,,,,,,,,,1.95,,,,,,,,,,LearningTask,,,59.8154042738,3,2015_Apr_12_1910,61,
-200,a,-200,,,,,,,,,,,,,,,,,0,0,0,0,10,0,40,3,,,,,,,,,,,,,,,,,,,,,,,,,,,,,,,,,,,,,,,,,,,,,,,,,,,,,,,,,LearningTask,,,59.8154042738,3,2015_Apr_12_1910,61,
-200,a,-200,,,,,,,,,,,,,,,,,0,0,0,0,10,1,41,3,0,0,0,0,None,,,,,,,,,,,,,,,,,,,a,1,0.384033918381,0.50337600708,0.000948190689087,,,,,,,,,,,,,,,,,,,1.25,,,,,,,,,,LearningTask,,,59.8154042738,3,2015_Apr_12_1910,61,
-200,a,-200,,,,,,,,,,,,,,,,,0,0,0,0,10,1,41,3,,,,,,,,,,,,,,,,,,,,,,,,,,,,,,,,,,,,,,,,,,,,,,,,,,,,,,,,,LearningTask,,,59.8154042738,3,2015_Apr_12_1910,61,
200,w,200,,,,,,,,,,,,,,,,,0,0,0,0,10,2,42,0,0,0,0,0,None,,,,,,,,,,,,,,,,,,,w,1,0.351406097412,0.51428103447,0.000971078872681,,,,,,,,,,,,,,,,,,,3.92,,,,,,,,,,LearningTask,,,59.8154042738,3,2015_Apr_12_1910,61,
200,w,200,,,,,,,,,,,,,,,,,0,0,0,0,10,2,42,0,,,,,,,,,,,,,,,,,,,,,,,,,,,,,,,,,,,,,,,,,,,,,,,,,,,,,,,,,LearningTask,,,59.8154042738,3,2015_Apr_12_1910,61,
200,w,200,,,,,,,,,,,,,,,,,0,0,0,0,10,3,43,0,0,0,0,0,None,,,,,,,,,,,,,,,,,,,w,1,0.401131868362,0.509616851807,0.000915050506592,,,,,,,,,,,,,,,,,,,3.87,,,,,,,,,,LearningTask,,,59.8154042738,3,2015_Apr_12_1910,61,
200,w,200,,,,,,,,,,,,,,,,,0,0,0,0,10,3,43,0,,,,,,,,,,,,,,,,,,,,,,,,,,,,,,,,,,,,,,,,,,,,,,,,,,,,,,,,,LearningTask,,,59.8154042738,3,2015_Apr_12_1910,61,
-200,a,-200,,,,,,,,,,,,,,,,,0,0,0,0,11,0,44,3,0,0,0,0,None,,,,,,,,,,,,,,,,,,,a,1,0.367612838745,0.511542797089,0.00100493431091,,,,,,,,,,,,,,,,,,,0.97,,,,,,,,,,LearningTask,,,59.8154042738,3,2015_Apr_12_1910,61,
-200,a,-200,,,,,,,,,,,,,,,,,0,0,0,0,11,0,44,3,,,,,,,,,,,,,,,,,,,,,,,,,,,,,,,,,,,,,,,,,,,,,,,,,,,,,,,,,LearningTask,,,59.8154042738,3,2015_Apr_12_1910,61,
-200,q,200,,,,,,,,,,,,,,,,,0,0,0,0,11,1,45,1,0,0,0,0,None,,,,,,,,,,,,,,,,,,,q,1,0.43460392952,0.506619930267,0.000998020172119,,,,,,,,,,,,,,,,,,,1.12,,,,,,,,,,LearningTask,,,59.8154042738,3,2015_Apr_12_1910,61,
-200,q,200,,,,,,,,,,,,,,,,,0,0,0,0,11,1,45,1,,,,,,,,,,,,,,,,,,,,,,,,,,,,,,,,,,,,,,,,,,,,,,,,,,,,,,,,,LearningTask,,,59.8154042738,3,2015_Apr_12_1910,61,
-200,q,200,,,,,,,,,,,,,,,,,0,0,0,0,11,2,46,1,0,0,0,0,None,,,,,,,,,,,,,,,,,,,q,1,0.384212017059,0.507864952087,0.000915050506592,,,,,,,,,,,,,,,,,,,1.88,,,,,,,,,,LearningTask,,,59.8154042738,3,2015_Apr_12_1910,61,
-200,q,200,,,,,,,,,,,,,,,,,0,0,0,0,11,2,46,1,,,,,,,,,,,,,,,,,,,,,,,,,,,,,,,,,,,,,,,,,,,,,,,,,,,,,,,,,LearningTask,,,59.8154042738,3,2015_Apr_12_1910,61,
-200,q,200,,,,,,,,,,,,,,,,,0,0,0,0,11,3,47,1,0,0,0,0,None,,,,,,,,,,,,,,,,,,,q,1,0.417445898056,0.502884864807,0.000997066497803,,,,,,,,,,,,,,,,,,,4.11,,,,,,,,,,LearningTask,,,59.8154042738,3,2015_Apr_12_1910,61,
-200,q,200,,,,,,,,,,,,,,,,,0,0,0,0,11,3,47,1,,,,,,,,,,,,,,,,,,,,,,,,,,,,,,,,,,,,,,,,,,,,,,,,,,,,,,,,,LearningTask,,,59.8154042738,3,2015_Apr_12_1910,61,
-200,q,200,,,,,,,,,,,,,,,,,0,0,0,0,12,0,48,1,0,0,0,0,None,,,,,,,,,,,,,,,,,,,q,1,0.383546829224,0.513744115829,0.00121116638184,,,,,,,,,,,,,,,,,,,4.18,,,,,,,,,,LearningTask,,,59.8154042738,3,2015_Apr_12_1910,61,
-200,q,200,,,,,,,,,,,,,,,,,0,0,0,0,12,0,48,1,,,,,,,,,,,,,,,,,,,,,,,,,,,,,,,,,,,,,,,,,,,,,,,,,,,,,,,,,LearningTask,,,59.8154042738,3,2015_Apr_12_1910,61,
-200,q,200,,,,,,,,,,,,,,,,,0,0,0,0,12,1,49,1,0,0,0,0,None,,,,,,,,,,,,,,,,,,,q,1,0.484803199768,0.500039100647,0.00152111053467,,,,,,,,,,,,,,,,,,,1.76,,,,,,,,,,LearningTask,,,59.8154042738,3,2015_Apr_12_1910,61,
-200,q,200,,,,,,,,,,,,,,,,,0,0,0,0,12,1,49,1,,,,,,,,,,,,,,,,,,,,,,,,,,,,,,,,,,,,,,,,,,,,,,,,,,,,,,,,,LearningTask,,,59.8154042738,3,2015_Apr_12_1910,61,
200,s,-200,,,,,,,,,,,,,,,,,0,0,0,0,12,2,50,2,0,0,0,0,None,,,,,,,,,,,,,,,,,,,s,1,0.367307901382,0.50647187233,0.000919103622437,,,,,,,,,,,,,,,,,,,0.5,,,,,,,,,,LearningTask,,,59.8154042738,3,2015_Apr_12_1910,61,
200,s,-200,,,,,,,,,,,,,,,,,0,0,0,0,12,2,50,2,,,,,,,,,,,,,,,,,,,,,,,,,,,,,,,,,,,,,,,,,,,,,,,,,,,,,,,,,LearningTask,,,59.8154042738,3,2015_Apr_12_1910,61,
200,s,-200,,,,,,,,,,,,,,,,,0,0,0,0,12,3,51,2,0,0,0,0,None,,,,,,,,,,,,,,,,,,,s,1,0.418070077896,0.515877962112,0.00138998031616,,,,,,,,,,,,,,,,,,,0.31,,,,,,,,,,LearningTask,,,59.8154042738,3,2015_Apr_12_1910,61,
200,s,-200,,,,,,,,,,,,,,,,,0,0,0,0,12,3,51,2,,,,,,,,,,,,,,,,,,,,,,,,,,,,,,,,,,,,,,,,,,,,,,,,,,,,,,,,,LearningTask,,,59.8154042738,3,2015_Apr_12_1910,61,
-200,a,-200,,,,,,,,,,,,,,,,,0,0,0,0,13,0,52,3,0,0,0,0,None,,,,,,,,,,,,,,,,,,,a,1,0.300674915314,0.516721010208,0.00105404853821,,,,,,,,,,,,,,,,,,,0.91,,,,,,,,,,LearningTask,,,59.8154042738,3,2015_Apr_12_1910,61,
-200,a,-200,,,,,,,,,,,,,,,,,0,0,0,0,13,0,52,3,,,,,,,,,,,,,,,,,,,,,,,,,,,,,,,,,,,,,,,,,,,,,,,,,,,,,,,,,LearningTask,,,59.8154042738,3,2015_Apr_12_1910,61,
200,w,200,,,,,,,,,,,,,,,,,0,0,0,0,13,1,53,0,0,0,0,0,None,,,,,,,,,,,,,,,,,,,w,1,0.333876132965,0.510311841965,0.000921964645386,,,,,,,,,,,,,,,,,,,1.87,,,,,,,,,,LearningTask,,,59.8154042738,3,2015_Apr_12_1910,61,
200,w,200,,,,,,,,,,,,,,,,,0,0,0,0,13,1,53,0,,,,,,,,,,,,,,,,,,,,,,,,,,,,,,,,,,,,,,,,,,,,,,,,,,,,,,,,,LearningTask,,,59.8154042738,3,2015_Apr_12_1910,61,
200,w,200,,,,,,,,,,,,,,,,,0,0,0,0,13,2,54,0,0,0,0,0,None,,,,,,,,,,,,,,,,,,,w,1,0.367672920227,0.515887975693,0.000943899154663,,,,,,,,,,,,,,,,,,,4.01,,,,,,,,,,LearningTask,,,59.8154042738,3,2015_Apr_12_1910,61,
200,w,200,,,,,,,,,,,,,,,,,0,0,0,0,13,2,54,0,,,,,,,,,,,,,,,,,,,,,,,,,,,,,,,,,,,,,,,,,,,,,,,,,,,,,,,,,LearningTask,,,59.8154042738,3,2015_Apr_12_1910,61,
200,w,200,,,,,,,,,,,,,,,,,0,0,0,0,13,3,55,0,0,0,0,0,None,,,,,,,,,,,,,,,,,,,w,1,0.384144067764,0.514503002167,0.000927925109863,,,,,,,,,,,,,,,,,,,0.55,,,,,,,,,,LearningTask,,,59.8154042738,3,2015_Apr_12_1910,61,
200,w,200,,,,,,,,,,,,,,,,,0,0,0,0,13,3,55,0,,,,,,,,,,,,,,,,,,,,,,,,,,,,,,,,,,,,,,,,,,,,,,,,,,,,,,,,,LearningTask,,,59.8154042738,3,2015_Apr_12_1910,61,
-200,q,200,,,,,,,,,,,,,,,,,0,0,0,0,14,0,56,1,0,0,0,0,None,,,,,,,,,,,,,,,,,,,q,1,0.316595077515,0.51651597023,0.000923156738281,,,,,,,,,,,,,,,,,,,3.8,,,,,,,,,,LearningTask,,,59.8154042738,3,2015_Apr_12_1910,61,
-200,q,200,,,,,,,,,,,,,,,,,0,0,0,0,14,0,56,1,,,,,,,,,,,,,,,,,,,,,,,,,,,,,,,,,,,,,,,,,,,,,,,,,,,,,,,,,LearningTask,,,59.8154042738,3,2015_Apr_12_1910,61,
-200,q,200,,,,,,,,,,,,,,,,,0,0,0,0,14,1,57,1,0,0,0,0,None,,,,,,,,,,,,,,,,,,,q,1,0.350817918777,0.509196043015,0.000922203063965,,,,,,,,,,,,,,,,,,,0.68,,,,,,,,,,LearningTask,,,59.8154042738,3,2015_Apr_12_1910,61,
-200,q,200,,,,,,,,,,,,,,,,,0,0,0,0,14,1,57,1,,,,,,,,,,,,,,,,,,,,,,,,,,,,,,,,,,,,,,,,,,,,,,,,,,,,,,,,,LearningTask,,,59.8154042738,3,2015_Apr_12_1910,61,
-200,q,200,,,,,,,,,,,,,,,,,0,0,0,0,14,2,58,1,0,0,0,0,None,,,,,,,,,,,,,,,,,,,q,1,0.367686033249,0.514980077744,0.00092601776123,,,,,,,,,,,,,,,,,,,3.88,,,,,,,,,,LearningTask,,,59.8154042738,3,2015_Apr_12_1910,61,
-200,q,200,,,,,,,,,,,,,,,,,0,0,0,0,14,2,58,1,,,,,,,,,,,,,,,,,,,,,,,,,,,,,,,,,,,,,,,,,,,,,,,,,,,,,,,,,LearningTask,,,59.8154042738,3,2015_Apr_12_1910,61,
200,w,200,,,,,,,,,,,,,,,,,0,0,0,0,14,3,59,0,0,0,0,0,None,,,,,,,,,,,,,,,,,,,w,1,0.351854085922,0.515328168869,0.000910043716431,,,,,,,,,,,,,,,,,,,1.11,,,,,,,,,,LearningTask,,,59.8154042738,3,2015_Apr_12_1910,61,
200,w,200,,,,,,,,,,,,,,,,,0,0,0,0,14,3,59,0,,,,,,,,,,,,,,,,,,,,,,,,,,,,,,,,,,,,,,,,,,,,,,,,,,,,,,,,,LearningTask,,,59.8154042738,3,2015_Apr_12_1910,61,
200,w,200,,,,,,,,,,,,,,,,,0,0,0,0,15,0,60,0,0,0,0,0,None,,,,,,,,,,,,,,,,,,,w,1,0.401072978973,0.509207963943,0.000970840454102,,,,,,,,,,,,,,,,,,,0.7,,,,,,,,,,LearningTask,,,59.8154042738,3,2015_Apr_12_1910,61,
200,w,200,,,,,,,,,,,,,,,,,0,0,0,0,15,0,60,0,,,,,,,,,,,,,,,,,,,,,,,,,,,,,,,,,,,,,,,,,,,,,,,,,,,,,,,,,LearningTask,,,59.8154042738,3,2015_Apr_12_1910,61,
200,w,200,,,,,,,,,,,,,,,,,0,0,0,0,15,1,61,0,0,0,0,0,None,,,,,,,,,,,,,,,,,,,w,1,0.367652893066,0.51101899147,0.00091814994812,,,,,,,,,,,,,,,,,,,0.87,,,,,,,,,,LearningTask,,,59.8154042738,3,2015_Apr_12_1910,61,
200,w,200,,,,,,,,,,,,,,,,,0,0,0,0,15,1,61,0,,,,,,,,,,,,,,,,,,,,,,,,,,,,,,,,,,,,,,,,,,,,,,,,,,,,,,,,,LearningTask,,,59.8154042738,3,2015_Apr_12_1910,61,
200,w,200,,,,,,,,,,,,,,,,,0,0,0,0,15,2,62,0,0,0,0,0,None,,,,,,,,,,,,,,,,,,,w,1,0.334372997284,0.508126020432,0.00097393989563,,,,,,,,,,,,,,,,,,,0.4,,,,,,,,,,LearningTask,,,59.8154042738,3,2015_Apr_12_1910,61,
200,w,200,,,,,,,,,,,,,,,,,0,0,0,0,15,2,62,0,,,,,,,,,,,,,,,,,,,,,,,,,,,,,,,,,,,,,,,,,,,,,,,,,,,,,,,,,LearningTask,,,59.8154042738,3,2015_Apr_12_1910,61,
-200,q,200,,,,,,,,,,,,,,,,,0,0,0,0,15,3,63,1,0,0,0,0,None,,,,,,,,,,,,,,,,,,,q,1,0.417415857315,0.512515068054,0.00169706344604,,,,,,,,,,,,,,,,,,,0.9,,,,,,,,,,LearningTask,,,59.8154042738,3,2015_Apr_12_1910,61,
-200,q,200,,,,,,,,,,,,,,,,,0,0,0,0,15,3,63,1,,,,,,,,,,,,,,,,,,,,,,,,,,,,,,,,,,,,,,,,,,,,,,,,,,,,,,,,,LearningTask,,,59.8154042738,3,2015_Apr_12_1910,61,
200,w,200,,,,,,,,,,,,,,,,,0,0,0,0,16,0,64,0,0,0,0,0,None,,,,,,,,,,,,,,,,,,,w,1,0.884374856949,0.50735616684,0.000936985015869,,,,,,,,,,,,,,,,,,,0.63,,,,,,,,,,LearningTask,,,59.8154042738,3,2015_Apr_12_1910,61,
200,w,200,,,,,,,,,,,,,,,,,0,0,0,0,16,0,64,0,,,,,,,,,,,,,,,,,,,,,,,,,,,,,,,,,,,,,,,,,,,,,,,,,,,,,,,,,LearningTask,,,59.8154042738,3,2015_Apr_12_1910,61,
200,w,200,,,,,,,,,,,,,,,,,0,0,0,0,16,1,65,0,0,0,0,0,None,,,,,,,,,,,,,,,,,,,w,1,0.467685937881,0.509359121323,0.000917196273804,,,,,,,,,,,,,,,,,,,0.29,,,,,,,,,,LearningTask,,,59.8154042738,3,2015_Apr_12_1910,61,
200,w,200,,,,,,,,,,,,,,,,,0,0,0,0,16,1,65,0,,,,,,,,,,,,,,,,,,,,,,,,,,,,,,,,,,,,,,,,,,,,,,,,,,,,,,,,,LearningTask,,,59.8154042738,3,2015_Apr_12_1910,61,
200,w,200,,,,,,,,,,,,,,,,,0,0,0,0,16,2,66,0,0,0,0,0,None,,,,,,,,,,,,,,,,,,,w,1,0.534782886505,0.513033866882,0.000906944274902,,,,,,,,,,,,,,,,,,,2.1,,,,,,,,,,LearningTask,,,59.8154042738,3,2015_Apr_12_1910,61,
200,w,200,,,,,,,,,,,,,,,,,0,0,0,0,16,2,66,0,,,,,,,,,,,,,,,,,,,,,,,,,,,,,,,,,,,,,,,,,,,,,,,,,,,,,,,,,LearningTask,,,59.8154042738,3,2015_Apr_12_1910,61,
-200,q,200,,,,,,,,,,,,,,,,,0,0,0,0,16,3,67,1,0,0,0,0,None,,,,,,,,,,,,,,,,,,,q,1,0.850286960602,0.506047964096,0.000926971435547,,,,,,,,,,,,,,,,,,,1.87,,,,,,,,,,LearningTask,,,59.8154042738,3,2015_Apr_12_1910,61,
-200,q,200,,,,,,,,,,,,,,,,,0,0,0,0,16,3,67,1,,,,,,,,,,,,,,,,,,,,,,,,,,,,,,,,,,,,,,,,,,,,,,,,,,,,,,,,,LearningTask,,,59.8154042738,3,2015_Apr_12_1910,61,
-200,a,-200,,,,,,,,,,,,,,,,,0,0,0,0,17,0,68,3,0,0,0,0,None,,,,,,,,,,,,,,,,,,,a,1,0.534358024597,0.500053167343,0.000929117202759,,,,,,,,,,,,,,,,,,,3.93,,,,,,,,,,LearningTask,,,59.8154042738,3,2015_Apr_12_1910,61,
-200,a,-200,,,,,,,,,,,,,,,,,0,0,0,0,17,0,68,3,,,,,,,,,,,,,,,,,,,,,,,,,,,,,,,,,,,,,,,,,,,,,,,,,,,,,,,,,LearningTask,,,59.8154042738,3,2015_Apr_12_1910,61,
200,w,200,,,,,,,,,,,,,,,,,0,0,0,0,17,1,69,0,0,0,0,0,None,,,,,,,,,,,,,,,,,,,w,1,0.317063093185,0.508521080017,0.000921010971069,,,,,,,,,,,,,,,,,,,1.79,,,,,,,,,,LearningTask,,,59.8154042738,3,2015_Apr_12_1910,61,
200,w,200,,,,,,,,,,,,,,,,,0,0,0,0,17,1,69,0,,,,,,,,,,,,,,,,,,,,,,,,,,,,,,,,,,,,,,,,,,,,,,,,,,,,,,,,,LearningTask,,,59.8154042738,3,2015_Apr_12_1910,61,
-200,q,200,,,,,,,,,,,,,,,,,0,0,0,0,17,2,70,1,0,0,0,0,None,,,,,,,,,,,,,,,,,,,q,1,0.400337219238,0.507478952408,0.00146985054016,,,,,,,,,,,,,,,,,,,2.0,,,,,,,,,,LearningTask,,,59.8154042738,3,2015_Apr_12_1910,61,
-200,q,200,,,,,,,,,,,,,,,,,0,0,0,0,17,2,70,1,,,,,,,,,,,,,,,,,,,,,,,,,,,,,,,,,,,,,,,,,,,,,,,,,,,,,,,,,LearningTask,,,59.8154042738,3,2015_Apr_12_1910,61,
200,s,-200,,,,,,,,,,,,,,,,,0,0,0,0,17,3,71,2,0,0,0,0,None,,,,,,,,,,,,,,,,,,,s,1,0.3526699543,0.511399030685,0.00093412399292,,,,,,,,,,,,,,,,,,,0.33,,,,,,,,,,LearningTask,,,59.8154042738,3,2015_Apr_12_1910,61,
200,s,-200,,,,,,,,,,,,,,,,,0,0,0,0,17,3,71,2,,,,,,,,,,,,,,,,,,,,,,,,,,,,,,,,,,,,,,,,,,,,,,,,,,,,,,,,,LearningTask,,,59.8154042738,3,2015_Apr_12_1910,61,
-200,q,200,,,,,,,,,,,,,,,,,0,0,0,0,18,0,72,1,0,0,0,0,None,,,,,,,,,,,,,,,,,,,q,1,0.367176055908,0.513523817062,0.000949859619141,,,,,,,,,,,,,,,,,,,0.35,,,,,,,,,,LearningTask,,,59.8154042738,3,2015_Apr_12_1910,61,
-200,q,200,,,,,,,,,,,,,,,,,0,0,0,0,18,0,72,1,,,,,,,,,,,,,,,,,,,,,,,,,,,,,,,,,,,,,,,,,,,,,,,,,,,,,,,,,LearningTask,,,59.8154042738,3,2015_Apr_12_1910,61,
-200,a,-200,,,,,,,,,,,,,,,,,0,0,0,0,18,1,73,3,0,0,0,0,None,,,,,,,,,,,,,,,,,,,a,1,0.417163133621,0.507793188095,0.000964164733887,,,,,,,,,,,,,,,,,,,0.53,,,,,,,,,,LearningTask,,,59.8154042738,3,2015_Apr_12_1910,61,
-200,a,-200,,,,,,,,,,,,,,,,,0,0,0,0,18,1,73,3,,,,,,,,,,,,,,,,,,,,,,,,,,,,,,,,,,,,,,,,,,,,,,,,,,,,,,,,,LearningTask,,,59.8154042738,3,2015_Apr_12_1910,61,
-200,a,-200,,,,,,,,,,,,,,,,,0,0,0,0,18,2,74,3,0,0,0,0,None,,,,,,,,,,,,,,,,,,,a,1,0.449162960052,0.505342006683,0.000926971435547,,,,,,,,,,,,,,,,,,,0.49,,,,,,,,,,LearningTask,,,59.8154042738,3,2015_Apr_12_1910,61,
-200,a,-200,,,,,,,,,,,,,,,,,0,0,0,0,18,2,74,3,,,,,,,,,,,,,,,,,,,,,,,,,,,,,,,,,,,,,,,,,,,,,,,,,,,,,,,,,LearningTask,,,59.8154042738,3,2015_Apr_12_1910,61,
-200,a,-200,,,,,,,,,,,,,,,,,0,0,0,0,18,3,75,3,0,0,0,0,None,,,,,,,,,,,,,,,,,,,a,1,0.36708688736,0.512785196304,0.000938177108765,,,,,,,,,,,,,,,,,,,2.03,,,,,,,,,,LearningTask,,,59.8154042738,3,2015_Apr_12_1910,61,
-200,a,-200,,,,,,,,,,,,,,,,,0,0,0,0,18,3,75,3,,,,,,,,,,,,,,,,,,,,,,,,,,,,,,,,,,,,,,,,,,,,,,,,,,,,,,,,,LearningTask,,,59.8154042738,3,2015_Apr_12_1910,61,
200,s,-200,,,,,,,,,,,,,,,,,0,0,0,0,19,0,76,2,0,0,0,0,None,,,,,,,,,,,,,,,,,,,s,1,0.317259073257,0.505761861801,0.000967025756836,,,,,,,,,,,,,,,,,,,0.28,,,,,,,,,,LearningTask,,,59.8154042738,3,2015_Apr_12_1910,61,
200,s,-200,,,,,,,,,,,,,,,,,0,0,0,0,19,0,76,2,,,,,,,,,,,,,,,,,,,,,,,,,,,,,,,,,,,,,,,,,,,,,,,,,,,,,,,,,LearningTask,,,59.8154042738,3,2015_Apr_12_1910,61,
200,s,-200,,,,,,,,,,,,,,,,,0,0,0,0,19,1,77,2,0,0,0,0,None,,,,,,,,,,,,,,,,,,,s,1,0.385276079178,0.500711917877,0.000968933105469,,,,,,,,,,,,,,,,,,,3.97,,,,,,,,,,LearningTask,,,59.8154042738,3,2015_Apr_12_1910,61,
200,s,-200,,,,,,,,,,,,,,,,,0,0,0,0,19,1,77,2,,,,,,,,,,,,,,,,,,,,,,,,,,,,,,,,,,,,,,,,,,,,,,,,,,,,,,,,,LearningTask,,,59.8154042738,3,2015_Apr_12_1910,61,
200,s,-200,,,,,,,,,,,,,,,,,0,0,0,0,19,2,78,2,0,0,0,0,None,,,,,,,,,,,,,,,,,,,s,1,0.368273973465,0.514539003372,0.000923156738281,,,,,,,,,,,,,,,,,,,2.21,,,,,,,,,,LearningTask,,,59.8154042738,3,2015_Apr_12_1910,61,
200,s,-200,,,,,,,,,,,,,,,,,0,0,0,0,19,2,78,2,,,,,,,,,,,,,,,,,,,,,,,,,,,,,,,,,,,,,,,,,,,,,,,,,,,,,,,,,LearningTask,,,59.8154042738,3,2015_Apr_12_1910,61,
-200,a,-200,,,,,,,,,,,,,,,,,0,0,0,0,19,3,79,3,0,0,0,0,None,,,,,,,,,,,,,,,,,,,a,1,0.384566068649,0.507467031479,0.000960111618042,,,,,,,,,,,,,,,,,,,0.75,,,,,,,,,,LearningTask,,,59.8154042738,3,2015_Apr_12_1910,61,
-200,a,-200,,,,,,,,,,,,,,,,,0,0,0,0,19,3,79,3,,,,,,,,,,,,,,,,,,,,,,,,,,,,,,,,,,,,,,,,,,,,,,,,,,,,,,,,,LearningTask,,,59.8154042738,3,2015_Apr_12_1910,61,
-200,a,-200,,,,,,,,,,,,,,,,,0,0,0,0,20,0,80,3,0,0,0,0,None,,,,,,,,,,,,,,,,,,,a,1,0.33384180069,0.501893043518,0.000926971435547,,,,,,,,,,,,,,,,,,,2.2,,,,,,,,,,LearningTask,,,59.8154042738,3,2015_Apr_12_1910,61,
-200,a,-200,,,,,,,,,,,,,,,,,0,0,0,0,20,0,80,3,,,,,,,,,,,,,,,,,,,,,,,,,,,,,,,,,,,,,,,,,,,,,,,,,,,,,,,,,LearningTask,,,59.8154042738,3,2015_Apr_12_1910,61,
200,w,200,,,,,,,,,,,,,,,,,0,0,0,0,20,1,81,0,0,0,0,0,None,,,,,,,,,,,,,,,,,,,w,1,0.333611011505,0.509099960327,0.00113487243652,,,,,,,,,,,,,,,,,,,0.4,,,,,,,,,,LearningTask,,,59.8154042738,3,2015_Apr_12_1910,61,
200,w,200,,,,,,,,,,,,,,,,,0,0,0,0,20,1,81,0,,,,,,,,,,,,,,,,,,,,,,,,,,,,,,,,,,,,,,,,,,,,,,,,,,,,,,,,,LearningTask,,,59.8154042738,3,2015_Apr_12_1910,61,
-200,q,200,,,,,,,,,,,,,,,,,0,0,0,0,20,2,82,1,0,0,0,0,None,,,,,,,,,,,,,,,,,,,q,1,0.283932924271,0.509912014008,0.000948905944824,,,,,,,,,,,,,,,,,,,0.46,,,,,,,,,,LearningTask,,,59.8154042738,3,2015_Apr_12_1910,61,
-200,q,200,,,,,,,,,,,,,,,,,0,0,0,0,20,2,82,1,,,,,,,,,,,,,,,,,,,,,,,,,,,,,,,,,,,,,,,,,,,,,,,,,,,,,,,,,LearningTask,,,59.8154042738,3,2015_Apr_12_1910,61,
200,s,-200,,,,,,,,,,,,,,,,,0,0,0,0,20,3,83,2,0,0,0,0,None,,,,,,,,,,,,,,,,,,,s,1,0.451359033585,0.514627933502,0.000943899154663,,,,,,,,,,,,,,,,,,,2.16,,,,,,,,,,LearningTask,,,59.8154042738,3,2015_Apr_12_1910,61,
200,s,-200,,,,,,,,,,,,,,,,,0,0,0,0,20,3,83,2,,,,,,,,,,,,,,,,,,,,,,,,,,,,,,,,,,,,,,,,,,,,,,,,,,,,,,,,,LearningTask,,,59.8154042738,3,2015_Apr_12_1910,61,
-200,q,200,,,,,,,,,,,,,,,,,0,0,0,0,21,0,84,1,0,0,0,0,None,,,,,,,,,,,,,,,,,,,q,1,0.466679096222,0.50536108017,0.000964164733887,,,,,,,,,,,,,,,,,,,1.78,,,,,,,,,,LearningTask,,,59.8154042738,3,2015_Apr_12_1910,61,
-200,q,200,,,,,,,,,,,,,,,,,0,0,0,0,21,0,84,1,,,,,,,,,,,,,,,,,,,,,,,,,,,,,,,,,,,,,,,,,,,,,,,,,,,,,,,,,LearningTask,,,59.8154042738,3,2015_Apr_12_1910,61,
-200,a,-200,,,,,,,,,,,,,,,,,0,0,0,0,21,1,85,3,0,0,0,0,None,,,,,,,,,,,,,,,,,,,a,1,0.516674041748,0.502830028534,0.00114989280701,,,,,,,,,,,,,,,,,,,1.21,,,,,,,,,,LearningTask,,,59.8154042738,3,2015_Apr_12_1910,61,
-200,a,-200,,,,,,,,,,,,,,,,,0,0,0,0,21,1,85,3,,,,,,,,,,,,,,,,,,,,,,,,,,,,,,,,,,,,,,,,,,,,,,,,,,,,,,,,,LearningTask,,,59.8154042738,3,2015_Apr_12_1910,61,
200,s,-200,,,,,,,,,,,,,,,,,0,0,0,0,21,2,86,2,0,0,0,0,None,,,,,,,,,,,,,,,,,,,s,1,0.516741037369,0.507742881775,0.000977039337158,,,,,,,,,,,,,,,,,,,2.24,,,,,,,,,,LearningTask,,,59.8154042738,3,2015_Apr_12_1910,61,
200,s,-200,,,,,,,,,,,,,,,,,0,0,0,0,21,2,86,2,,,,,,,,,,,,,,,,,,,,,,,,,,,,,,,,,,,,,,,,,,,,,,,,,,,,,,,,,LearningTask,,,59.8154042738,3,2015_Apr_12_1910,61,
200,s,-200,,,,,,,,,,,,,,,,,0,0,0,0,21,3,87,2,0,0,0,0,None,,,,,,,,,,,,,,,,,,,s,1,0.518529176712,0.508189916611,0.00100898742676,,,,,,,,,,,,,,,,,,,0.57,,,,,,,,,,LearningTask,,,59.8154042738,3,2015_Apr_12_1910,61,
200,s,-200,,,,,,,,,,,,,,,,,0,0,0,0,21,3,87,2,,,,,,,,,,,,,,,,,,,,,,,,,,,,,,,,,,,,,,,,,,,,,,,,,,,,,,,,,LearningTask,,,59.8154042738,3,2015_Apr_12_1910,61,
-200,q,200,,,,,,,,,,,,,,,,,0,0,0,0,22,0,88,1,0,0,0,0,None,,,,,,,,,,,,,,,,,,,q,1,0.500339984894,0.515402078629,0.00092601776123,,,,,,,,,,,,,,,,,,,0.5,,,,,,,,,,LearningTask,,,59.8154042738,3,2015_Apr_12_1910,61,
-200,q,200,,,,,,,,,,,,,,,,,0,0,0,0,22,0,88,1,,,,,,,,,,,,,,,,,,,,,,,,,,,,,,,,,,,,,,,,,,,,,,,,,,,,,,,,,LearningTask,,,59.8154042738,3,2015_Apr_12_1910,61,
200,s,-200,,,,,,,,,,,,,,,,,0,0,0,0,22,1,89,2,0,0,0,0,None,,,,,,,,,,,,,,,,,,,s,1,0.400650024414,0.510553121567,0.000952959060669,,,,,,,,,,,,,,,,,,,0.4,,,,,,,,,,LearningTask,,,59.8154042738,3,2015_Apr_12_1910,61,
200,s,-200,,,,,,,,,,,,,,,,,0,0,0,0,22,1,89,2,,,,,,,,,,,,,,,,,,,,,,,,,,,,,,,,,,,,,,,,,,,,,,,,,,,,,,,,,LearningTask,,,59.8154042738,3,2015_Apr_12_1910,61,
200,s,-200,,,,,,,,,,,,,,,,,0,0,0,0,22,2,90,2,0,0,0,0,None,,,,,,,,,,,,,,,,,,,s,1,0.400531053543,0.505670070648,0.00092601776123,,,,,,,,,,,,,,,,,,,4.0,,,,,,,,,,LearningTask,,,59.8154042738,3,2015_Apr_12_1910,61,
200,s,-200,,,,,,,,,,,,,,,,,0,0,0,0,22,2,90,2,,,,,,,,,,,,,,,,,,,,,,,,,,,,,,,,,,,,,,,,,,,,,,,,,,,,,,,,,LearningTask,,,59.8154042738,3,2015_Apr_12_1910,61,
-200,q,200,,,,,,,,,,,,,,,,,0,0,0,0,22,3,91,1,0,0,0,0,None,,,,,,,,,,,,,,,,,,,q,1,0.434221982956,0.507076978683,0.000952959060669,,,,,,,,,,,,,,,,,,,1.78,,,,,,,,,,LearningTask,,,59.8154042738,3,2015_Apr_12_1910,61,
-200,q,200,,,,,,,,,,,,,,,,,0,0,0,0,22,3,91,1,,,,,,,,,,,,,,,,,,,,,,,,,,,,,,,,,,,,,,,,,,,,,,,,,,,,,,,,,LearningTask,,,59.8154042738,3,2015_Apr_12_1910,61,
200,w,200,,,,,,,,,,,,,,,,,0,0,0,0,23,0,92,0,0,0,0,0,None,,,,,,,,,,,,,,,,,,,w,1,0.500447034836,0.513025999069,0.000916004180908,,,,,,,,,,,,,,,,,,,0.63,,,,,,,,,,LearningTask,,,59.8154042738,3,2015_Apr_12_1910,61,
200,w,200,,,,,,,,,,,,,,,,,0,0,0,0,23,0,92,0,,,,,,,,,,,,,,,,,,,,,,,,,,,,,,,,,,,,,,,,,,,,,,,,,,,,,,,,,LearningTask,,,59.8154042738,3,2015_Apr_12_1910,61,
-200,a,-200,,,,,,,,,,,,,,,,,0,0,0,0,23,1,93,3,0,0,0,0,None,,,,,,,,,,,,,,,,,,,a,1,0.500665903091,0.507091999054,0.000946998596191,,,,,,,,,,,,,,,,,,,0.66,,,,,,,,,,LearningTask,,,59.8154042738,3,2015_Apr_12_1910,61,
-200,a,-200,,,,,,,,,,,,,,,,,0,0,0,0,23,1,93,3,,,,,,,,,,,,,,,,,,,,,,,,,,,,,,,,,,,,,,,,,,,,,,,,,,,,,,,,,LearningTask,,,59.8154042738,3,2015_Apr_12_1910,61,
200,w,200,,,,,,,,,,,,,,,,,0,0,0,0,23,2,94,0,0,0,0,0,None,,,,,,,,,,,,,,,,,,,s,0,0.400957107544,0.503859996796,0.000964164733887,,,,,,,,,,,,,,,,,,,0.44,,,,,,,,,,LearningTask,,,59.8154042738,3,2015_Apr_12_1910,61,
200,w,200,,,,,,,,,,,,,,,,,0,0,0,0,23,2,94,0,1,0,1,0,None,,,,,,,,,,,,,,,,,,,w,1,0.316699981689,0.516919136047,0.00105905532837,,,,,,,,,,,,,,,,,,,0.29,,,,,,,,,,LearningTask,,,59.8154042738,3,2015_Apr_12_1910,61,
200,w,200,,,,,,,,,,,,,,,,,0,0,0,0,23,2,94,0,,,,,,,,,,,,,,,,,,,,,,,,,,,,,,,,,,,,,,,,,,,,,,,,,,,,,,,,,LearningTask,,,59.8154042738,3,2015_Apr_12_1910,61,
200,w,200,,,,,,,,,,,,,,,,,0,0,0,0,23,3,95,0,0,0,0,0,None,,,,,,,,,,,,,,,,,,,w,1,0.468319892883,0.504832029343,0.00117301940918,,,,,,,,,,,,,,,,,,,0.77,,,,,,,,,,LearningTask,,,59.8154042738,3,2015_Apr_12_1910,61,
200,w,200,,,,,,,,,,,,,,,,,0,0,0,0,23,3,95,0,,,,,,,,,,,,,,,,,,,,,,,,,,,,,,,,,,,,,,,,,,,,,,,,,,,,,,,,,LearningTask,,,59.8154042738,3,2015_Apr_12_1910,61,
-200,q,200,,,,,,,,,,,,,,,,,0,0,0,0,24,0,96,1,0,0,0,0,None,,,,,,,,,,,,,,,,,,,q,1,0.350722074509,0.50594997406,0.000924110412598,,,,,,,,,,,,,,,,,,,2.01,,,,,,,,,,LearningTask,,,59.8154042738,3,2015_Apr_12_1910,61,
-200,q,200,,,,,,,,,,,,,,,,,0,0,0,0,24,0,96,1,,,,,,,,,,,,,,,,,,,,,,,,,,,,,,,,,,,,,,,,,,,,,,,,,,,,,,,,,LearningTask,,,59.8154042738,3,2015_Apr_12_1910,61,
200,s,-200,,,,,,,,,,,,,,,,,0,0,0,0,24,1,97,2,0,0,0,0,None,,,,,,,,,,,,,,,,,,,s,1,0.417825222015,0.513768911362,0.00092887878418,,,,,,,,,,,,,,,,,,,0.58,,,,,,,,,,LearningTask,,,59.8154042738,3,2015_Apr_12_1910,61,
200,s,-200,,,,,,,,,,,,,,,,,0,0,0,0,24,1,97,2,,,,,,,,,,,,,,,,,,,,,,,,,,,,,,,,,,,,,,,,,,,,,,,,,,,,,,,,,LearningTask,,,59.8154042738,3,2015_Apr_12_1910,61,
-200,a,-200,,,,,,,,,,,,,,,,,0,0,0,0,24,2,98,3,0,0,0,0,None,,,,,,,,,,,,,,,,,,,a,1,0.700628995895,0.504415988922,0.000909090042114,,,,,,,,,,,,,,,,,,,1.09,,,,,,,,,,LearningTask,,,59.8154042738,3,2015_Apr_12_1910,61,
-200,a,-200,,,,,,,,,,,,,,,,,0,0,0,0,24,2,98,3,,,,,,,,,,,,,,,,,,,,,,,,,,,,,,,,,,,,,,,,,,,,,,,,,,,,,,,,,LearningTask,,,59.8154042738,3,2015_Apr_12_1910,61,
200,s,-200,,,,,,,,,,,,,,,,,0,0,0,0,24,3,99,2,0,0,0,0,None,,,,,,,,,,,,,,,,,,,s,1,0.416829824448,0.51017999649,0.00120186805725,,,,,,,,,,,,,,,,,,,0.64,,,,,,,,,,LearningTask,,,59.8154042738,3,2015_Apr_12_1910,61,
200,s,-200,,,,,,,,,,,,,,,,,0,0,0,0,24,3,99,2,,,,,,,,,,,,,,,,,,,,,,,,,,,,,,,,,,,,,,,,,,,,,,,,,,,,,,,,,LearningTask,,,59.8154042738,3,2015_Apr_12_1910,61,
,,,,,,,,,,,,,,,,,,,0,0,0,0,,,,,,,,,,,,,,,,,,,,,,,,,,,,,,,,,,,,,,,,,,,,,,,,,,,,,,,,,,,,,LearningTask,,,59.8154042738,3,2015_Apr_12_1910,61,
,,,z,0,-200,,,,,,,,,,,,,,,,,,,,,,,,,,,0,0,0,0,0,0,0,0,,,,,,,,,,,,,,,,0.25,stop,diamondyellow.gif,None,0,,6,2.97017621994,5,5,3,1,0,0.00121688842773,0.506991863251,0.75660777092,,,,0.3,,,,,,,,,LearningTask,,,59.8154042738,3,2015_Apr_12_1910,61,
,,,m,0,200,,,,,,,,,,,,,,,,,,,,,,,,,,,0,0,0,0,0,1,1,1,,,,,,,,,,,,,,,,-1,go,linemagenta.gif,m,1,0.333347082138,7,3.30352330208,6,5,3,1,0,0.00123691558838,0.51193189621,,,,,-1,,,,,,,,,LearningTask,,,59.8154042738,3,2015_Apr_12_1910,61,
,,,m,0,200,,,,,,,,,,,,,,,,,,,,,,,,,,,0,0,0,0,1,0,2,1,,,,,,,,,,,,,,,,-1,go,circleorange.gif,m,1,0.550466060638,8,3.85398936272,7,5,3,1,0,0.00134491920471,0.513008832932,,,,,-1,,,,,,,,,LearningTask,,,59.8154042738,3,2015_Apr_12_1910,61,
,,,z,0,-200,,,,,,,,,,,,,,,,,,,,,,,,,,,0,0,0,0,1,1,3,0,,,,,,,,,,,,,,,,-1,go,linemagenta.gif,z,1,0.433292150497,9,4.28728151321,8,5,3,1,0,0.00126481056213,0.513338804245,,,,,-1,,,,,,,,,LearningTask,,,59.8154042738,3,2015_Apr_12_1910,61,
,,,z,0,-200,,,,,,,,,,,,,,,,,,,,,,,,,,,0,0,0,0,2,0,4,0,,,,,,,,,,,,,,,,-1,go,squareblue.gif,z,1,0.60157084465,10,4.88885235786,9,5,3,1,0,0.00123691558838,0.512181997299,,,,,-1,,,,,,,,,LearningTask,,,59.8154042738,3,2015_Apr_12_1910,61,
,,,z,0,-200,,,,,,,,,,,,,,,,,,,,,,,,,,,0,0,0,0,2,1,5,0,,,,,,,,,,,,,,,,-1,go,invertedtrianglegreen.gif,z,1,0.533323049545,11,5.42217540741,10,5,3,1,0,0.00127601623535,0.513227939606,,,,,-1,,,,,,,,,LearningTask,,,59.8154042738,3,2015_Apr_12_1910,61,
,,,m,0,200,,,,,,,,,,,,,,,,,,,,,,,,,,,0,0,0,0,3,0,6,1,,,,,,,,,,,,,,,,-1,go,invertedtrianglegreen.gif,m,1,0.533335924149,12,5.95551133156,11,5,3,1,0,0.00125193595886,0.51268196106,,,,,-1,,,,,,,,,LearningTask,,,59.8154042738,3,2015_Apr_12_1910,61,
,,,z,0,-200,,,,,,,,,,,,,,,,,,,,,,,,,,,0,0,0,0,3,1,7,0,,,,,,,,,,,,,,,,-1,go,invertedtrianglegreen.gif,z,1,0.616953849792,13,6.57246518135,12,5,3,1,0,0.00125312805176,0.513287067413,,,,,-1,,,,,,,,,LearningTask,,,59.8154042738,3,2015_Apr_12_1910,61,
,,,m,0,200,,,,,,,,,,,,,,,,,,,,,,,,,,,0,0,0,0,4,0,8,1,,,,,,,,,,,,,,,,-1,go,squareblue.gif,m,1,0.534002065659,14,7.10646724701,13,5,3,1,0,0.00123310089111,0.512732982635,,,,,-1,,,,,,,,,LearningTask,,,59.8154042738,3,2015_Apr_12_1910,61,
,,,z,0,-200,,,,,,,,,,,,,,,,,,,,,,,,,,,0,0,0,0,4,1,9,0,,,,,,,,,,,,,,,,0.3,stop,diamondyellow.gif,z,1,0.518033981323,14,7.10646724701,13,6,3,1,0,0.00127196311951,0.512768030167,0.813477039337,,,,0.25,,,,,,,,,LearningTask,,,59.8154042738,3,2015_Apr_12_1910,61,
,,,z,0,-200,,,,,,,,,,,,,,,,,,,,,,,,,,,0,0,0,0,5,0,10,0,,,,,,,,,,,,,,,,0.25,stop,diamondyellow.gif,z,1,0.434694051743,14,7.10646724701,13,7,3,1,0,0.00127005577087,0.511832952499,0.762548923492,,,,0.2,,,,,,,,,LearningTask,,,59.8154042738,3,2015_Apr_12_1910,61,
,,,z,0,-200,,,,,,,,,,,,,,,,,,,,,,,,,,,0,0,0,0,5,1,11,0,,,,,,,,,,,,,,,,-1,go,circleorange.gif,z,1,0.450970172882,15,7.55743741989,14,7,3,1,0,0.00126886367798,0.512863874435,,,,,-1,,,,,,,,,LearningTask,,,59.8154042738,3,2015_Apr_12_1910,61,
,,,m,0,200,,,,,,,,,,,,,,,,,,,,,,,,,,,0,0,0,0,6,0,12,1,,,,,,,,,,,,,,,,0.25,stop,circleorange.gif,m,1,0.600870132446,15,7.55743741989,14,8,3,1,0,0.00125002861023,0.512625932693,0.762954950333,,,,0.2,,,,,,,,,LearningTask,,,59.8154042738,3,2015_Apr_12_1910,61,
,,,z,0,-200,,,,,,,,,,,,,,,,,,,,,,,,,,,0,0,0,0,6,1,13,0,,,,,,,,,,,,,,,,-1,go,squareblue.gif,z,1,0.383980035782,16,7.94141745567,15,8,3,1,0,0.00124216079712,0.51145195961,,,,,-1,,,,,,,,,LearningTask,,,59.8154042738,3,2015_Apr_12_1910,61,
,,,m,0,200,,,,,,,,,,,,,,,,,,,,,,,,,,,0,0,0,0,7,0,14,1,,,,,,,,,,,,,,,,-1,go,trianglegray.gif,m,1,0.300488948822,17,8.2419064045,16,8,3,1,0,0.00157403945923,0.512588024139,,,,,-1,,,,,,,,,LearningTask,,,59.8154042738,3,2015_Apr_12_1910,61,
,,,m,0,200,,,,,,,,,,,,,,,,,,,,,,,,,,,0,0,0,0,7,1,15,1,,,,,,,,,,,,,,,,-1,go,crosswhite.gif,m,1,0.435315847397,18,8.67722225189,17,8,3,1,0,0.00124406814575,0.51168513298,,,,,-1,,,,,,,,,LearningTask,,,59.8154042738,3,2015_Apr_12_1910,61,
,,,z,0,-200,,,,,,,,,,,,,,,,,,,,,,,,,,,0,0,0,0,8,0,16,0,,,,,,,,,,,,,,,,-1,go,invertedtrianglegreen.gif,z,1,0.400387048721,19,9.07760930061,18,8,3,1,0,0.00123596191406,0.513379096985,,,,,-1,,,,,,,,,LearningTask,,,59.8154042738,3,2015_Apr_12_1910,61,
,,,z,0,-200,,,,,,,,,,,,,,,,,,,,,,,,,,,0,0,0,0,8,1,17,0,,,,,,,,,,,,,,,,-1,go,invertedtrianglegreen.gif,z,1,0.417728900909,20,9.49533820152,19,8,3,1,0,0.00121879577637,0.51242685318,,,,,-1,,,,,,,,,LearningTask,,,59.8154042738,3,2015_Apr_12_1910,61,
,,,z,0,-200,,,,,,,,,,,,,,,,,,,,,,,,,,,0,0,0,0,9,0,18,0,,,,,,,,,,,,,,,,0.2,stop,hexagoncyan.gif,z,1,0.566504955292,20,9.49533820152,19,9,3,1,0,0.00128388404846,0.513429880142,0.713356971741,,,,0.15,,,,,,,,,LearningTask,,,59.8154042738,3,2015_Apr_12_1910,61,
,,,m,0,200,,,,,,,,,,,,,,,,,,,,,,,,,,,0,0,0,0,9,1,19,1,,,,,,,,,,,,,,,,-1,go,trianglegray.gif,m,1,0.350078105927,21,9.84541630745,20,9,3,1,0,0.00123286247253,0.512875795364,,,,,-1,,,,,,,,,LearningTask,,,59.8154042738,3,2015_Apr_12_1910,61,
,,,z,0,-200,,,,,,,,,,,,,,,,,,,,,,,,,,,0,0,0,0,10,0,20,0,,,,,,,,,,,,,,,,0.15,stop,circleorange.gif,None,0,,21,9.84541630745,20,10,4,1,0,0.001131772995,0.514783859253,0.651450872421,,,,0.2,,,,,,,,,LearningTask,,,59.8154042738,3,2015_Apr_12_1910,61,
,,,z,0,-200,,,,,,,,,,,,,,,,,,,,,,,,,,,0,0,0,0,10,1,21,0,,,,,,,,,,,,,,,,-1,go,trianglegray.gif,z,1,0.65113401413,22,10.4965503216,21,10,4,1,0,0.00123691558838,0.512427806854,,,,,-1,,,,,,,,,LearningTask,,,59.8154042738,3,2015_Apr_12_1910,61,
,,,m,0,200,,,,,,,,,,,,,,,,,,,,,,,,,,,0,0,0,0,11,0,22,1,,,,,,,,,,,,,,,,-1,go,invertedtrianglegreen.gif,m,1,0.551017045975,23,11.0475673676,22,10,4,1,0,0.0012149810791,0.512447834015,,,,,-1,,,,,,,,,LearningTask,,,59.8154042738,3,2015_Apr_12_1910,61,
,,,m,0,200,,,,,,,,,,,,,,,,,,,,,,,,,,,0,0,0,0,11,1,23,1,,,,,,,,,,,,,,,,-1,go,crosswhite.gif,m,1,0.583556175232,24,11.6311235428,23,10,4,1,0,0.00124192237854,0.512992858887,,,,,-1,,,,,,,,,LearningTask,,,59.8154042738,3,2015_Apr_12_1910,61,
,,,m,0,200,,,,,,,,,,,,,,,,,,,,,,,,,,,0,0,0,0,12,0,24,1,,,,,,,,,,,,,,,,0.2,stop,diamondyellow.gif,None,0,,24,11.6311235428,23,11,5,1,0,0.00123190879822,0.512331962585,0.712264060974,,,,0.25,,,,,,,,,LearningTask,,,59.8154042738,3,2015_Apr_12_1910,61,
,,,z,0,-200,,,,,,,,,,,,,,,,,,,,,,,,,,,0,0,0,0,12,1,25,0,,,,,,,,,,,,,,,,-1,go,trianglegray.gif,z,1,0.583896875381,25,12.2150204182,24,11,5,1,0,0.00120496749878,0.513063907623,,,,,-1,,,,,,,,,LearningTask,,,59.8154042738,3,2015_Apr_12_1910,61,
,,,m,0,200,,,,,,,,,,,,,,,,,,,,,,,,,,,0,0,0,0,13,0,26,1,,,,,,,,,,,,,,,,0.25,stop,diamondyellow.gif,m,1,0.450850009918,25,12.2150204182,24,12,5,1,0,0.00128507614136,0.511714935303,0.762479066849,,,,0.2,,,,,,,,,LearningTask,,,59.8154042738,3,2015_Apr_12_1910,61,
,,,z,0,-200,,,,,,,,,,,,,,,,,,,,,,,,,,,0,0,0,0,13,1,27,0,,,,,,,,,,,,,,,,-1,go,crosswhite.gif,z,1,0.449959039688,26,12.6649794579,25,12,5,1,0,0.00107407569885,0.513514995575,,,,,-1,,,,,,,,,LearningTask,,,59.8154042738,3,2015_Apr_12_1910,61,
,,,m,0,200,,,,,,,,,,,,,,,,,,,,,,,,,,,0,0,0,0,14,0,28,1,,,,,,,,,,,,,,,,-1,go,linemagenta.gif,m,1,0.333096981049,27,12.9980764389,26,12,5,1,0,0.00123190879822,0.513120889664,,,,,-1,,,,,,,,,LearningTask,,,59.8154042738,3,2015_Apr_12_1910,61,
,,,m,0,200,,,,,,,,,,,,,,,,,,,,,,,,,,,0,0,0,0,14,1,29,1,,,,,,,,,,,,,,,,-1,go,crosswhite.gif,m,1,0.550941944122,28,13.549018383,27,12,5,1,0,0.0012321472168,0.512762069702,,,,,-1,,,,,,,,,LearningTask,,,59.8154042738,3,2015_Apr_12_1910,61,
,,,z,0,-200,,,,,,,,,,,,,,,,,,,,,,,,,,,0,0,0,0,15,0,30,0,,,,,,,,,,,,,,,,-1,go,invertedtrianglegreen.gif,z,1,0.45027089119,29,13.9992892742,28,12,5,1,0,0.00123190879822,0.512476921082,,,,,-1,,,,,,,,,LearningTask,,,59.8154042738,3,2015_Apr_12_1910,61,
,,,z,0,-200,,,,,,,,,,,,,,,,,,,,,,,,,,,0,0,0,0,15,1,31,0,,,,,,,,,,,,,,,,0.2,stop,diamondyellow.gif,None,0,,29,13.9992892742,28,13,6,1,0,0.00120711326599,0.512499094009,0.712249040604,,,,0.25,,,,,,,,,LearningTask,,,59.8154042738,3,2015_Apr_12_1910,61,
,,,m,0,200,,,,,,,,,,,,,,,,,,,,,,,,,,,0,0,0,0,16,0,32,1,,,,,,,,,,,,,,,,-1,go,squareblue.gif,m,1,0.767220973969,30,14.7665102482,29,13,6,1,0,0.00121092796326,0.512196063995,,,,,-1,,,,,,,,,LearningTask,,,59.8154042738,3,2015_Apr_12_1910,61,
,,,m,0,200,,,,,,,,,,,,,,,,,,,,,,,,,,,0,0,0,0,16,1,33,1,,,,,,,,,,,,,,,,-1,go,hexagoncyan.gif,m,1,0.58408498764,31,15.3505952358,30,13,6,1,0,0.00127005577087,0.512840032578,,,,,-1,,,,,,,,,LearningTask,,,59.8154042738,3,2015_Apr_12_1910,61,
,,,m,0,200,,,,,,,,,,,,,,,,,,,,,,,,,,,0,0,0,0,17,0,34,1,,,,,,,,,,,,,,,,0.2,stop,hexagoncyan.gif,m,1,0.616779088974,31,15.3505952358,30,14,6,1,0,0.0012469291687,0.513471126556,0.713627099991,,,,0.15,,,,,,,,,LearningTask,,,59.8154042738,3,2015_Apr_12_1910,61,
,,,m,0,200,,,,,,,,,,,,,,,,,,,,,,,,,,,0,0,0,0,17,1,35,1,,,,,,,,,,,,,,,,-1,go,invertedtrianglegreen.gif,m,1,0.598443984985,32,15.9490392208,31,14,6,1,0,0.00121808052063,0.51443195343,,,,,-1,,,,,,,,,LearningTask,,,59.8154042738,3,2015_Apr_12_1910,61,
,,,,,,,,,,,,,,,,,,,,,,,,,,,,,,,,0,0,0,0,,,,,,,,,,,,,,,,,,,,,,,,,,,,,,,,,,,,space,19.8580291271,,,,,,,,,,,LearningTask,,,59.8154042738,3,2015_Apr_12_1910,61,
,,,,,,,,,,,,,,,,,,,,,,,,,,,,,,,,,,,,,,,,,,,,,,,,,,,,,,,,,,,,,,,,,,,,,,,,,,,space,0.0799911022186,,,,,,,LearningTask,,,59.8154042738,3,2015_Apr_12_1910,61,
,,,,,,,,,,,,,,,,,,,,,,,,,,,,,,,,,,,,,,,,0,0,0,0,0,0,0,0,,,,,,,,,,,,,,,,,,,,,,,,,,,,,,space,15.3159480095,y,1.83382892609,,,LearningTask,,,59.8154042738,3,2015_Apr_12_1910,61,
,,,,,,,,,,,,,,,,,,,,,,,,,,,,,,,,,,,,,,,,0,0,0,0,1,0,1,0,,,,,,,,,,,,,,,,,,,,,,,,,,,,,,,,u,1.09890913963,,,LearningTask,,,59.8154042738,3,2015_Apr_12_1910,61,
,,,,,,,,,,,,,,,,,,,,,,,,,,,,,,,,,,,,,,,,0,0,0,0,2,0,2,0,,,,,,,,,,,,,,,,,,,,,,,,,,,,,,,,i,1.28324198723,,,LearningTask,,,59.8154042738,3,2015_Apr_12_1910,61,
,,,,,,,,,,,,,,,,,,,,,,,,,,,,,,,,,,,,,,,,0,0,0,0,3,0,3,0,,,,,,,,,,,,,,,,,,,,,,,,,,,,,,,,r,1.58366990089,,,LearningTask,,,59.8154042738,3,2015_Apr_12_1910,61,
,,,,,,,,,,,,,,,,,,,,,,,,,,,,,,,,,,,,,,,,0,0,0,0,4,0,4,0,,,,,,,,,,,,,,,,,,,,,,,,,,,,,,,,o,1.71627902985,,,LearningTask,,,59.8154042738,3,2015_Apr_12_1910,61,
,,,,,,,,,,,,,,,,,,,,,,,,,,,,,,,,,,,,,,,,0,0,0,0,5,0,5,0,,,,,,,,,,,,,,,,,,,,,,,,,,,,,,,,u,1.25058603287,,,LearningTask,,,59.8154042738,3,2015_Apr_12_1910,61,
,,,,,,,,,,,,,,,,,,,,,,,,,,,,,,,,,,,,,,,,0,0,0,0,6,0,6,0,,,,,,,,,,,,,,,,,,,,,,,,,,,,,,,,u,0.90078997612,,,LearningTask,,,59.8154042738,3,2015_Apr_12_1910,61,
,,,,,,,,,,,,,,,,,,,,,,,,,,,,,,,,,,,,,,,,0,0,0,0,7,0,7,0,,,,,,,,,,,,,,,,,,,,,,,,,,,,,,,,y,1.18442106247,,,LearningTask,,,59.8154042738,3,2015_Apr_12_1910,61,
,,,,,,,,,,,,,,,,,,,,,,,,,,,,,,,,,,,,,,,,0,0,0,0,8,0,8,0,,,,,,,,,,,,,,,,,,,,,,,,,,,,,,,,o,1.1164689064,,,LearningTask,,,59.8154042738,3,2015_Apr_12_1910,61,
,,,,,,,,,,,,,,,,,,,,,,,,,,,,,,,,,,,,,,,,0,0,0,0,9,0,9,0,,,,,,,,,,,,,,,,,,,,,,,,,,,,,,,,u,0.933568954468,,,LearningTask,,,59.8154042738,3,2015_Apr_12_1910,61,
,,,,,,,,,,,,,,,,,,,,,,,,,,,,,,,,,,,,,,,,0,0,0,0,10,0,10,0,,,,,,,,,,,,,,,,,,,,,,,,,,,,,,,,y,1.10099101067,,,LearningTask,,,59.8154042738,3,2015_Apr_12_1910,61,
,,,,,,,,,,,,,,,,,,,,,,,,,,,,,,,,,,,,,,,,0,0,0,0,11,0,11,0,,,,,,,,,,,,,,,,,,,,,,,,,,,,,,,,r,1.45059084892,,,LearningTask,,,59.8154042738,3,2015_Apr_12_1910,61,
,,,,,,,,,,,,,,,,,,,,,,,,,,,,,,,,,,,,,,,,0,0,0,0,12,0,12,0,,,,,,,,,,,,,,,,,,,,,,,,,,,,,,,,u,0.816919088364,,,LearningTask,,,59.8154042738,3,2015_Apr_12_1910,61,
,,,,,,,,,,,,,,,,,,,,,,,,,,,,,,,,,,,,,,,,0,0,0,0,13,0,13,0,,,,,,,,,,,,,,,,,,,,,,,,,,,,,,,,y,1.14990901947,,,LearningTask,,,59.8154042738,3,2015_Apr_12_1910,61,
,,,,,,,,,,,,,,,,,,,,,,,,,,,,,,,,,,,,,,,,0,0,0,0,14,0,14,0,,,,,,,,,,,,,,,,,,,,,,,,,,,,,,,,t,1.4989118576,,,LearningTask,,,59.8154042738,3,2015_Apr_12_1910,61,
,,,,,,,,,,,,,,,,,,,,,,,,,,,,,,,,,,,,,,,,0,0,0,0,15,0,15,0,,,,,,,,,,,,,,,,,,,,,,,,,,,,,,,,o,1.31638288498,,,LearningTask,,,59.8154042738,3,2015_Apr_12_1910,61,
,,,,,,,,,,,,,,,,,,,,,,,,,,,,,,,,,,,,,,,,0,0,0,0,16,0,16,0,,,,,,,,,,,,,,,,,,,,,,,,,,,,,,,,r,1.44984197617,,,LearningTask,,,59.8154042738,3,2015_Apr_12_1910,61,
,,,,,,,,,,,,,,,,,,,,,,,,,,,,,,,,,,,,,,,,0,0,0,0,17,0,17,0,,,,,,,,,,,,,,,,,,,,,,,,,,,,,,,,o,1.40026903152,,,LearningTask,,,59.8154042738,3,2015_Apr_12_1910,61,
,,,,,,,,,,,,,,,,,,,,,,,,,,,,,,,,,,,,,,,,0,0,0,0,18,0,18,0,,,,,,,,,,,,,,,,,,,,,,,,,,,,,,,,t,1.80072712898,,,LearningTask,,,59.8154042738,3,2015_Apr_12_1910,61,
,,,,,,,,,,,,,,,,,,,,,,,,,,,,,,,,,,,,,,,,0,0,0,0,19,0,19,0,,,,,,,,,,,,,,,,,,,,,,,,,,,,,,,,u,1.14980196953,,,LearningTask,,,59.8154042738,3,2015_Apr_12_1910,61,
,,,,,,,,,,,,,,,,,,,,,,,,,,,,,,,,,,,,,,,,0,0,0,0,,,,,,,,,,,,,,,,,,,,,,,,,,,,,,,,,,,,,,,,LearningTask,,,59.8154042738,3,2015_Apr_12_1910,61,
,,,,,,,,,,,,,,,,,,,,,,,,,,,,,,,,,,,,,,,,,,,,,,,,,,,,,,,,,,,,,,,,,,,,,,,,,,,,,,,,,space,9.55969500542,LearningTask,,,59.8154042738,3,2015_Apr_12_1910,61,
