xPos,corrAns,yPos,corrGoResp,yPosGoStim,xPosGoStim,pracTrials.thisRepN,pracTrials.thisTrialN,pracTrials.thisN,pracTrials.thisIndex,ReDoLoopPrac.thisRepN,ReDoLoopPrac.thisTrialN,ReDoLoopPrac.thisN,ReDoLoopPrac.thisIndex,ReDoLoopPrac.thisTrial,pracStopTrials.thisRepN,pracStopTrials.thisTrialN,pracStopTrials.thisN,pracStopTrials.thisIndex,Blocks.thisRepN,Blocks.thisTrialN,Blocks.thisN,Blocks.thisIndex,trials.thisRepN,trials.thisTrialN,trials.thisN,trials.thisIndex,ReDoLoopMain.thisRepN,ReDoLoopMain.thisTrialN,ReDoLoopMain.thisN,ReDoLoopMain.thisIndex,ReDoLoopMain.thisTrial,StopBlocks.thisRepN,StopBlocks.thisTrialN,StopBlocks.thisN,StopBlocks.thisIndex,StopBlocks.thisTrial,StopTrials.thisRepN,StopTrials.thisTrialN,StopTrials.thisN,StopTrials.thisIndex,ok1.keys,ok1.rt,StartTrialTimeStamp,resp.keys,resp.corr,resp.rt,learningStimOnset,learningFixOnset,EndTrialTimeStamp,beginningSSD,trialType,goStim,goResp.keys,goResp.corr,goTrailCountOutput,goCumRTOutput,goRTCountOutput,stopTrialCountOutput,stopSuccessCountOutput,omissionCountOutput,commissionCountOutput,fixStopOnset,goStimOnset,stopSignalOnset,goResp.rt,key_resp_3.keys,key_resp_3.rt,computedRewardOutput,key_resp_7.keys,key_resp_7.rt,EndingSSD,expName,gender (m/f),age,frameRate,session,date,participant,
,,,,,,,,,,,,,,,,,,,,,,,,,,,,,,,,,,,,,,,,,space,1.74420595169,,,,,,,,,,,,,,,,,,,,,,,,,,,,,,LearningTask,,,59.988729687,3,2015_May_27_1654,6,
-200,a,-200,,,,0,0,0,7,0,0,0,0,None,,,,,,,,,,,,,,,,,,,,,,,,,,,,,11.9991941452,a,1,0.567412137985,0.50367808342,0.00533294677734,15.0035471916,,,,,,,,,,,,,,,,,,,,,,,LearningTask,,,59.988729687,3,2015_May_27_1654,6,
-200,a,-200,,,,0,0,0,7,,,,,,,,,,,,,,,,,,,,,,,,,,,,,,,,,,,,,,,,,,,,,,,,,,,,,,,,,,,,,,,LearningTask,,,59.988729687,3,2015_May_27_1654,6,
-200,a,-200,,,,0,1,1,3,0,0,0,0,None,,,,,,,,,,,,,,,,,,,,,,,,,,,,,15.0299329758,a,1,0.450793027878,0.506746053696,0.00135111808777,18.0208661556,,,,,,,,,,,,,,,,,,,,,,,LearningTask,,,59.988729687,3,2015_May_27_1654,6,
-200,a,-200,,,,0,1,1,3,,,,,,,,,,,,,,,,,,,,,,,,,,,,,,,,,,,,,,,,,,,,,,,,,,,,,,,,,,,,,,,LearningTask,,,59.988729687,3,2015_May_27_1654,6,
200,w,200,,,,0,2,2,0,0,0,0,0,None,,,,,,,,,,,,,,,,,,,,,,,,,,,,,18.0653100014,w,1,0.38414812088,0.505271911621,0.00152087211609,21.0545551777,,,,,,,,,,,,,,,,,,,,,,,LearningTask,,,59.988729687,3,2015_May_27_1654,6,
200,w,200,,,,0,2,2,0,,,,,,,,,,,,,,,,,,,,,,,,,,,,,,,,,,,,,,,,,,,,,,,,,,,,,,,,,,,,,,,LearningTask,,,59.988729687,3,2015_May_27_1654,6,
200,w,200,,,,0,3,3,8,0,0,0,0,None,,,,,,,,,,,,,,,,,,,,,,,,,,,,,21.1035850048,w,1,0.450006961823,0.500947952271,0.00131392478943,24.1047401428,,,,,,,,,,,,,,,,,,,,,,,LearningTask,,,59.988729687,3,2015_May_27_1654,6,
200,w,200,,,,0,3,3,8,,,,,,,,,,,,,,,,,,,,,,,,,,,,,,,,,,,,,,,,,,,,,,,,,,,,,,,,,,,,,,,LearningTask,,,59.988729687,3,2015_May_27_1654,6,
200,w,200,,,,0,4,4,4,0,0,0,0,None,,,,,,,,,,,,,,,,,,,,,,,,,,,,,24.1566500664,w,1,0.684157848358,0.514835119247,0.00165700912476,27.1551771164,,,,,,,,,,,,,,,,,,,,,,,LearningTask,,,59.988729687,3,2015_May_27_1654,6,
200,w,200,,,,0,4,4,4,,,,,,,,,,,,,,,,,,,,,,,,,,,,,,,,,,,,,,,,,,,,,,,,,,,,,,,,,,,,,,,LearningTask,,,59.988729687,3,2015_May_27_1654,6,
-200,q,200,,,,0,5,5,5,0,0,0,0,None,,,,,,,,,,,,,,,,,,,,,,,,,,,,,27.2145171165,q,1,0.383985042572,0.506926059723,0.000952959060669,30.2056469917,,,,,,,,,,,,,,,,,,,,,,,LearningTask,,,59.988729687,3,2015_May_27_1654,6,
-200,q,200,,,,0,5,5,5,,,,,,,,,,,,,,,,,,,,,,,,,,,,,,,,,,,,,,,,,,,,,,,,,,,,,,,,,,,,,,,LearningTask,,,59.988729687,3,2015_May_27_1654,6,
-200,q,200,,,,0,6,6,9,0,0,0,0,None,,,,,,,,,,,,,,,,,,,,,,,,,,,,,30.2720370293,s,0,0.517876148224,0.516542196274,0.000982999801636,33.2728199959,,,,,,,,,,,,,,,,,,,,,,,LearningTask,,,59.988729687,3,2015_May_27_1654,6,
-200,q,200,,,,0,6,6,9,1,0,1,0,None,,,,,,,,,,,,,,,,,,,,,,,,,,,,,33.2736711502,w,0,0.650903940201,0.51531291008,0.0016667842865,36.2732400894,,,,,,,,,,,,,,,,,,,,,,,LearningTask,,,59.988729687,3,2015_May_27_1654,6,
-200,q,200,,,,0,6,6,9,2,0,2,0,None,,,,,,,,,,,,,,,,,,,,,,,,,,,,,36.2741010189,q,1,0.250993967056,0.515413999557,0.00153398513794,39.2738499641,,,,,,,,,,,,,,,,,,,,,,,LearningTask,,,59.988729687,3,2015_May_27_1654,6,
-200,q,200,,,,0,6,6,9,,,,,,,,,,,,,,,,,,,,,,,,,,,,,,,,,,,,,,,,,,,,,,,,,,,,,,,,,,,,,,,LearningTask,,,59.988729687,3,2015_May_27_1654,6,
200,s,-200,,,,0,7,7,6,0,0,0,0,None,,,,,,,,,,,,,,,,,,,,,,,,,,,,,39.3514740467,s,1,0.333832025528,0.505410194397,0.0013861656189,42.3410100937,,,,,,,,,,,,,,,,,,,,,,,LearningTask,,,59.988729687,3,2015_May_27_1654,6,
200,s,-200,,,,0,7,7,6,,,,,,,,,,,,,,,,,,,,,,,,,,,,,,,,,,,,,,,,,,,,,,,,,,,,,,,,,,,,,,,LearningTask,,,59.988729687,3,2015_May_27_1654,6,
200,s,-200,,,,0,8,8,2,0,0,0,0,None,,,,,,,,,,,,,,,,,,,,,,,,,,,,,42.4281330109,s,1,0.467632055283,0.512293100357,0.000935077667236,45.4248371124,,,,,,,,,,,,,,,,,,,,,,,LearningTask,,,59.988729687,3,2015_May_27_1654,6,
200,s,-200,,,,0,8,8,2,,,,,,,,,,,,,,,,,,,,,,,,,,,,,,,,,,,,,,,,,,,,,,,,,,,,,,,,,,,,,,,LearningTask,,,59.988729687,3,2015_May_27_1654,6,
-200,q,200,,,,0,9,9,1,0,0,0,0,None,,,,,,,,,,,,,,,,,,,,,,,,,,,,,45.5167560577,q,1,0.367359876633,0.507789850235,0.00095796585083,48.5082910061,,,,,,,,,,,,,,,,,,,,,,,LearningTask,,,59.988729687,3,2015_May_27_1654,6,
-200,q,200,,,,0,9,9,1,,,,,,,,,,,,,,,,,,,,,,,,,,,,,,,,,,,,,,,,,,,,,,,,,,,,,,,,,,,,,,,LearningTask,,,59.988729687,3,2015_May_27_1654,6,
,,,m,0,200,,,,,,,,,,0,0,0,1,,,,,,,,,,,,,,,,,,,,,,,,,49.3840711117,,,,,,52.3783149719,0.25,stop,diamondcyan.gif,None,0,0,0,0,1,1,0,0,0.00309085845947,0.506714820862,0.757135868073,,,,,,,,LearningTask,,,59.988729687,3,2015_May_27_1654,6,
,,,z,0,-200,,,,,,,,,,0,1,1,0,,,,,,,,,,,,,,,,,,,,,,,,,52.3792750835,,,,,,55.378000021,0.25,stop,crossgreen.gif,None,0,0,0,0,2,2,0,0,0.00132083892822,0.512106895447,0.762360811234,,,,,,,,LearningTask,,,59.988729687,3,2015_May_27_1654,6,
,,,z,0,-200,,,,,,,,,,1,0,2,0,,,,,,,,,,,,,,,,,,,,,,,,,55.3788530827,,,,,,58.378262043,0.25,stop,diamondcyan.gif,None,0,0,0,0,3,3,0,0,0.00131392478943,0.512950897217,0.762915849686,,,,,,,,LearningTask,,,59.988729687,3,2015_May_27_1654,6,
,,,m,0,200,,,,,,,,,,1,1,3,1,,,,,,,,,,,,,,,,,,,,,,,,,58.3790149689,,,,,,61.3785121441,-1,go,triangleorange.gif,m,1,1,0.700685977936,1,3,3,0,0,0.00135612487793,0.513536930084,,0.700685977936,,,,,,,LearningTask,,,59.988729687,3,2015_May_27_1654,6,
,,,z,0,-200,,,,,,,,,,2,0,4,0,,,,,,,,,,,,,,,,,,,,,,,,,61.37936306,,,,,,64.379253149,-1,go,circlegray.gif,z,1,2,1.1847679615,2,3,3,0,0,0.00178003311157,0.513250112534,,0.484081983566,,,,,,,LearningTask,,,59.988729687,3,2015_May_27_1654,6,
,,,z,0,-200,,,,,,,,,,2,1,5,0,,,,,,,,,,,,,,,,,,,,,,,,,64.3801081181,,,,,,67.3797941208,0.25,stop,squareyellow.gif,None,0,2,1.1847679615,2,4,4,0,0,0.00177693367004,0.513087034225,0.763136863708,,,,,,,,LearningTask,,,59.988729687,3,2015_May_27_1654,6,
,,,m,0,200,,,,,,,,,,3,0,6,1,,,,,,,,,,,,,,,,,,,,,,,,,67.3806521893,,,,,,70.3799550533,0.25,stop,invertedtrianglewhite.gif,None,0,2,1.1847679615,2,5,5,0,0,0.00125312805176,0.51305103302,0.763164997101,,,,,,,,LearningTask,,,59.988729687,3,2015_May_27_1654,6,
,,,m,0,200,,,,,,,,,,3,1,7,1,,,,,,,,,,,,,,,,,,,,,,,,,70.3807971478,,,,,,73.3806221485,0.25,stop,squareyellow.gif,None,0,2,1.1847679615,2,6,6,0,0,0.00125908851624,0.51339006424,0.763273000717,,,,,,,,LearningTask,,,59.988729687,3,2015_May_27_1654,6,
,,,m,0,200,,,,,,,,,,4,0,8,1,,,,,,,,,,,,,,,,,,,,,,,,,73.381414175,,,,,,76.3807590008,-1,go,hexagonmagenta.gif,m,1,3,1.75221514702,3,6,6,0,0,0.00126814842224,0.513092041016,,0.567447185516,,,,,,,LearningTask,,,59.988729687,3,2015_May_27_1654,6,
,,,z,0,-200,,,,,,,,,,4,1,9,0,,,,,,,,,,,,,,,,,,,,,,,,,76.3816211224,,,,,,79.3813669682,0.25,stop,squareyellow.gif,z,1,3,1.75221514702,3,7,6,0,0,0.00125694274902,0.513035058975,0.763076066971,0.36739397049,,,,,,,LearningTask,,,59.988729687,3,2015_May_27_1654,6,
,,,,,,,,,,,,,,,,,,,,,,,,,,,,,,,,,,,,,,,,,,,,,,,,,,,,,,,,,,,,,,,,,,space,3.64660191536,,,,,LearningTask,,,59.988729687,3,2015_May_27_1654,6,
,,,,,,,,,,,,,,,,,,,,,,,,,,,,,,,,,,,,,,,,,space,0.849256038666,,,,,,,,,,,,,,,,,,,,,,,,,,,,,,LearningTask,,,59.988729687,3,2015_May_27_1654,6,
-200,a,-200,,,,,,,,,,,,,,,,,0,0,0,0,0,0,0,3,0,0,0,0,None,,,,,,,,,,,,84.1411659718,None,0,,0.505110025406,0.00103688240051,87.1309521198,,,,,,,,,,,,,,,,,,,1.0,,,,LearningTask,,,59.988729687,3,2015_May_27_1654,6,
-200,a,-200,,,,,,,,,,,,,,,,,0,0,0,0,0,0,0,3,1,0,1,0,None,,,,,,,,,,,,87.1320261955,None,0,,0.514616012573,0.0017671585083,90.1311509609,,,,,,,,,,,,,,,,,,,0.9,,,,LearningTask,,,59.988729687,3,2015_May_27_1654,6,
-200,a,-200,,,,,,,,,,,,,,,,,0,0,0,0,0,0,0,3,2,0,2,0,None,,,,,,,,,,,,90.1321601868,None,0,,0.515012025833,0.0017831325531,93.1314311028,,,,,,,,,,,,,,,,,,,1.13,,,,LearningTask,,,59.988729687,3,2015_May_27_1654,6,
-200,a,-200,,,,,,,,,,,,,,,,,0,0,0,0,0,0,0,3,3,0,3,0,None,,,,,,,,,,,,93.1324169636,a,1,0.283848047256,0.515173912048,0.00172591209412,96.1318371296,,,,,,,,,,,,,,,,,,,0.93,,,,LearningTask,,,59.988729687,3,2015_May_27_1654,6,
-200,a,-200,,,,,,,,,,,,,,,,,0,0,0,0,0,0,0,3,,,,,,,,,,,,,,,,,,,,,,,,,,,,,,,,,,,,,,,,,,,,,,LearningTask,,,59.988729687,3,2015_May_27_1654,6,
200,w,200,,,,,,,,,,,,,,,,,0,0,0,0,0,1,1,0,0,0,0,0,None,,,,,,,,,,,,96.3067471981,None,0,,0.50812292099,0.000917911529541,99.2989521027,,,,,,,,,,,,,,,,,,,0.47,,,,LearningTask,,,59.988729687,3,2015_May_27_1654,6,
200,w,200,,,,,,,,,,,,,,,,,0,0,0,0,0,1,1,0,1,0,1,0,None,,,,,,,,,,,,99.299654007,None,0,,0.515594005585,0.00121402740479,102.299606085,,,,,,,,,,,,,,,,,,,0.6,,,,LearningTask,,,59.988729687,3,2015_May_27_1654,6,
200,w,200,,,,,,,,,,,,,,,,,0,0,0,0,0,1,1,0,2,0,2,0,None,,,,,,,,,,,,102.300599098,None,0,,0.514985084534,0.00148415565491,105.299803972,,,,,,,,,,,,,,,,,,,0.57,,,,LearningTask,,,59.988729687,3,2015_May_27_1654,6,
200,w,200,,,,,,,,,,,,,,,,,0,0,0,0,0,1,1,0,3,0,3,0,None,,,,,,,,,,,,105.300798178,None,0,,0.515028953552,0.0017249584198,108.300378084,,,,,,,,,,,,,,,,,,,0.55,,,,LearningTask,,,59.988729687,3,2015_May_27_1654,6,
200,w,200,,,,,,,,,,,,,,,,,0,0,0,0,0,1,1,0,4,0,4,0,None,,,,,,,,,,,,108.301475048,None,0,,0.514777898788,0.00156307220459,111.300601006,,,,,,,,,,,,,,,,,,,0.7,,,,LearningTask,,,59.988729687,3,2015_May_27_1654,6,
200,w,200,,,,,,,,,,,,,,,,,0,0,0,0,0,1,1,0,,,,,,,,,,,,,,,,,,,,,,,,,,,,,,,,,,,,,,,,,,,,,,LearningTask,,,59.988729687,3,2015_May_27_1654,6,
200,w,200,,,,,,,,,,,,,,,,,0,0,0,0,0,2,2,0,0,0,0,0,None,,,,,,,,,,,,111.483821154,None,0,,0.500293016434,0.000938892364502,114.484485149,,,,,,,,,,,,,,,,,,,0.44,,,,LearningTask,,,59.988729687,3,2015_May_27_1654,6,
200,w,200,,,,,,,,,,,,,,,,,0,0,0,0,0,2,2,0,1,0,1,0,None,,,,,,,,,,,,114.485471964,None,0,,0.515075922012,0.00160598754883,117.484929085,,,,,,,,,,,,,,,,,,,0.65,,,,LearningTask,,,59.988729687,3,2015_May_27_1654,6,
200,w,200,,,,,,,,,,,,,,,,,0,0,0,0,0,2,2,0,2,0,2,0,None,,,,,,,,,,,,117.485921144,None,0,,0.515264034271,0.00179505348206,120.485500097,,,,,,,,,,,,,,,,,,,0.62,,,,LearningTask,,,59.988729687,3,2015_May_27_1654,6,
200,w,200,,,,,,,,,,,,,,,,,0,0,0,0,0,2,2,0,3,0,3,0,None,,,,,,,,,,,,120.486486197,None,0,,0.51492190361,0.00163698196411,123.486067057,,,,,,,,,,,,,,,,,,,0.58,,,,LearningTask,,,59.988729687,3,2015_May_27_1654,6,
200,w,200,,,,,,,,,,,,,,,,,0,0,0,0,0,2,2,0,4,0,4,0,None,,,,,,,,,,,,123.48706913,None,0,,0.514756917953,0.00178194046021,126.486399174,,,,,,,,,,,,,,,,,,,0.52,,,,LearningTask,,,59.988729687,3,2015_May_27_1654,6,
200,w,200,,,,,,,,,,,,,,,,,0,0,0,0,0,2,2,0,,,,,,,,,,,,,,,,,,,,,,,,,,,,,,,,,,,,,,,,,,,,,,LearningTask,,,59.988729687,3,2015_May_27_1654,6,
-200,q,200,,,,,,,,,,,,,,,,,0,0,0,0,0,3,3,1,0,0,0,0,None,,,,,,,,,,,,126.67379117,None,0,,0.511846780777,0.000911951065063,129.670092106,,,,,,,,,,,,,,,,,,,0.83,,,,LearningTask,,,59.988729687,3,2015_May_27_1654,6,
-200,q,200,,,,,,,,,,,,,,,,,0,0,0,0,0,3,3,1,1,0,1,0,None,,,,,,,,,,,,129.671077013,None,0,,0.514830112457,0.00157022476196,132.670610189,,,,,,,,,,,,,,,,,,,1.2,,,,LearningTask,,,59.988729687,3,2015_May_27_1654,6,
-200,q,200,,,,,,,,,,,,,,,,,0,0,0,0,0,3,3,1,2,0,2,0,None,,,,,,,,,,,,132.67159605,None,0,,0.514691114426,0.00178217887878,135.671444178,,,,,,,,,,,,,,,,,,,1.04,,,,LearningTask,,,59.988729687,3,2015_May_27_1654,6,
-200,q,200,,,,,,,,,,,,,,,,,0,0,0,0,0,3,3,1,3,0,3,0,None,,,,,,,,,,,,135.672617197,None,0,,0.514513015747,0.00126314163208,138.671399117,,,,,,,,,,,,,,,,,,,1.13,,,,LearningTask,,,59.988729687,3,2015_May_27_1654,6,
-200,q,200,,,,,,,,,,,,,,,,,0,0,0,0,0,3,3,1,4,0,4,0,None,,,,,,,,,,,,138.67238903,None,0,,0.514962911606,0.00153779983521,141.671552181,,,,,,,,,,,,,,,,,,,1.06,,,,LearningTask,,,59.988729687,3,2015_May_27_1654,6,
-200,q,200,,,,,,,,,,,,,,,,,0,0,0,0,0,3,3,1,,,,,,,,,,,,,,,,,,,,,,,,,,,,,,,,,,,,,,,,,,,,,,LearningTask,,,59.988729687,3,2015_May_27_1654,6,
-200,a,-200,,,,,,,,,,,,,,,,,0,0,0,0,1,0,4,3,0,0,0,0,None,,,,,,,,,,,,141.869052172,None,0,,0.502213954926,0.000938177108765,144.872205973,,,,,,,,,,,,,,,,,,,1.17,,,,LearningTask,,,59.988729687,3,2015_May_27_1654,6,
-200,a,-200,,,,,,,,,,,,,,,,,0,0,0,0,1,0,4,3,1,0,1,0,None,,,,,,,,,,,,144.873201132,None,0,,0.515222787857,0.00178480148315,147.872543097,,,,,,,,,,,,,,,,,,,0.77,,,,LearningTask,,,59.988729687,3,2015_May_27_1654,6,
-200,a,-200,,,,,,,,,,,,,,,,,0,0,0,0,1,0,4,3,2,0,2,0,None,,,,,,,,,,,,147.873522997,None,0,,0.515058040619,0.00155711174011,150.873275042,,,,,,,,,,,,,,,,,,,1.07,,,,LearningTask,,,59.988729687,3,2015_May_27_1654,6,
-200,a,-200,,,,,,,,,,,,,,,,,0,0,0,0,1,0,4,3,3,0,3,0,None,,,,,,,,,,,,150.874260187,None,0,,0.514987945557,0.00152993202209,153.873382092,,,,,,,,,,,,,,,,,,,0.98,,,,LearningTask,,,59.988729687,3,2015_May_27_1654,6,
-200,a,-200,,,,,,,,,,,,,,,,,0,0,0,0,1,0,4,3,4,0,4,0,None,,,,,,,,,,,,153.874373198,None,0,,0.515208005905,0.00175786018372,156.873982191,,,,,,,,,,,,,,,,,,,0.85,,,,LearningTask,,,59.988729687,3,2015_May_27_1654,6,
-200,a,-200,,,,,,,,,,,,,,,,,0,0,0,0,1,0,4,3,,,,,,,,,,,,,,,,,,,,,,,,,,,,,,,,,,,,,,,,,,,,,,LearningTask,,,59.988729687,3,2015_May_27_1654,6,
-200,a,-200,,,,,,,,,,,,,,,,,0,0,0,0,1,1,5,3,0,0,0,0,None,,,,,,,,,,,,157.078901052,None,0,,0.511003017426,0.00100016593933,160.074159145,,,,,,,,,,,,,,,,,,,1.22,,,,LearningTask,,,59.988729687,3,2015_May_27_1654,6,
-200,a,-200,,,,,,,,,,,,,,,,,0,0,0,0,1,1,5,3,1,0,1,0,None,,,,,,,,,,,,160.075154066,None,0,,0.515065193176,0.0015881061554,163.074681044,,,,,,,,,,,,,,,,,,,0.77,,,,LearningTask,,,59.988729687,3,2015_May_27_1654,6,
-200,a,-200,,,,,,,,,,,,,,,,,0,0,0,0,1,1,5,3,2,0,2,0,None,,,,,,,,,,,,163.075708151,None,0,,0.515053033829,0.00130701065063,166.074903011,,,,,,,,,,,,,,,,,,,1.02,,,,LearningTask,,,59.988729687,3,2015_May_27_1654,6,
-200,a,-200,,,,,,,,,,,,,,,,,0,0,0,0,1,1,5,3,3,0,3,0,None,,,,,,,,,,,,166.075921059,None,0,,0.515345096588,0.00194811820984,169.075498104,,,,,,,,,,,,,,,,,,,1.15,,,,LearningTask,,,59.988729687,3,2015_May_27_1654,6,
-200,a,-200,,,,,,,,,,,,,,,,,0,0,0,0,1,1,5,3,4,0,4,0,None,,,,,,,,,,,,169.076195002,None,0,,0.515460014343,0.00138401985168,172.076215982,,,,,,,,,,,,,,,,,,,0.99,,,,LearningTask,,,59.988729687,3,2015_May_27_1654,6,
-200,a,-200,,,,,,,,,,,,,,,,,0,0,0,0,1,1,5,3,,,,,,,,,,,,,,,,,,,,,,,,,,,,,,,,,,,,,,,,,,,,,,LearningTask,,,59.988729687,3,2015_May_27_1654,6,
200,w,200,,,,,,,,,,,,,,,,,0,0,0,0,1,2,6,0,0,0,0,0,None,,,,,,,,,,,,172.322728157,None,0,,0.503046035767,0.000985145568848,175.326361179,,,,,,,,,,,,,,,,,,,4.12,,,,LearningTask,,,59.988729687,3,2015_May_27_1654,6,
200,w,200,,,,,,,,,,,,,,,,,0,0,0,0,1,2,6,0,1,0,1,0,None,,,,,,,,,,,,175.327170134,None,0,,0.515528202057,0.00124621391296,178.32684803,,,,,,,,,,,,,,,,,,,3.76,,,,LearningTask,,,59.988729687,3,2015_May_27_1654,6,
200,w,200,,,,,,,,,,,,,,,,,0,0,0,0,1,2,6,0,2,0,2,0,None,,,,,,,,,,,,178.327541113,None,0,,0.515347957611,0.00125694274902,181.327332973,,,,,,,,,,,,,,,,,,,4.15,,,,LearningTask,,,59.988729687,3,2015_May_27_1654,6,
200,w,200,,,,,,,,,,,,,,,,,0,0,0,0,1,2,6,0,3,0,3,0,None,,,,,,,,,,,,181.32832408,None,0,,0.5150411129,0.00158095359802,184.327695131,,,,,,,,,,,,,,,,,,,4.05,,,,LearningTask,,,59.988729687,3,2015_May_27_1654,6,
200,w,200,,,,,,,,,,,,,,,,,0,0,0,0,1,2,6,0,4,0,4,0,None,,,,,,,,,,,,184.328690052,None,0,,0.515187978745,0.00157308578491,187.328196049,,,,,,,,,,,,,,,,,,,4.13,,,,LearningTask,,,59.988729687,3,2015_May_27_1654,6,
200,w,200,,,,,,,,,,,,,,,,,0,0,0,0,1,2,6,0,,,,,,,,,,,,,,,,,,,,,,,,,,,,,,,,,,,,,,,,,,,,,,LearningTask,,,59.988729687,3,2015_May_27_1654,6,
-200,q,200,,,,,,,,,,,,,,,,,0,0,0,0,1,3,7,1,0,0,0,0,None,,,,,,,,,,,,187.542505026,None,0,,0.501763105392,0.000977993011475,190.545104027,,,,,,,,,,,,,,,,,,,1.01,,,,LearningTask,,,59.988729687,3,2015_May_27_1654,6,
-200,q,200,,,,,,,,,,,,,,,,,0,0,0,0,1,3,7,1,1,0,1,0,None,,,,,,,,,,,,190.546103001,None,0,,0.515367031097,0.00139808654785,193.546037197,,,,,,,,,,,,,,,,,,,1.17,,,,LearningTask,,,59.988729687,3,2015_May_27_1654,6,
-200,q,200,,,,,,,,,,,,,,,,,0,0,0,0,1,3,7,1,2,0,2,0,None,,,,,,,,,,,,193.547028065,None,0,,0.514821052551,0.00177311897278,196.546060085,,,,,,,,,,,,,,,,,,,1.16,,,,LearningTask,,,59.988729687,3,2015_May_27_1654,6,
-200,q,200,,,,,,,,,,,,,,,,,0,0,0,0,1,3,7,1,3,0,3,0,None,,,,,,,,,,,,196.547111034,None,0,,0.515082120895,0.00184321403503,199.546602964,,,,,,,,,,,,,,,,,,,0.95,,,,LearningTask,,,59.988729687,3,2015_May_27_1654,6,
-200,q,200,,,,,,,,,,,,,,,,,0,0,0,0,1,3,7,1,4,0,4,0,None,,,,,,,,,,,,199.547598124,None,0,,0.515060186386,0.00179719924927,202.546833038,,,,,,,,,,,,,,,,,,,1.1,,,,LearningTask,,,59.988729687,3,2015_May_27_1654,6,
-200,q,200,,,,,,,,,,,,,,,,,0,0,0,0,1,3,7,1,,,,,,,,,,,,,,,,,,,,,,,,,,,,,,,,,,,,,,,,,,,,,,LearningTask,,,59.988729687,3,2015_May_27_1654,6,
-200,q,200,,,,,,,,,,,,,,,,,0,0,0,0,2,0,8,1,0,0,0,0,None,,,,,,,,,,,,202.762223005,None,0,,0.501017093658,0.00096607208252,205.764083147,,,,,,,,,,,,,,,,,,,2.08,,,,LearningTask,,,59.988729687,3,2015_May_27_1654,6,
-200,q,200,,,,,,,,,,,,,,,,,0,0,0,0,2,0,8,1,1,0,1,0,None,,,,,,,,,,,,205.765099049,None,0,,0.514909982681,0.00178599357605,208.764419079,,,,,,,,,,,,,,,,,,,1.83,,,,LearningTask,,,59.988729687,3,2015_May_27_1654,6,
-200,q,200,,,,,,,,,,,,,,,,,0,0,0,0,2,0,8,1,2,0,2,0,None,,,,,,,,,,,,208.765403032,None,0,,0.515095949173,0.00162887573242,211.765127182,,,,,,,,,,,,,,,,,,,1.89,,,,LearningTask,,,59.988729687,3,2015_May_27_1654,6,
-200,q,200,,,,,,,,,,,,,,,,,0,0,0,0,2,0,8,1,3,0,3,0,None,,,,,,,,,,,,211.766144037,None,0,,0.514928102493,0.00166893005371,214.765319109,,,,,,,,,,,,,,,,,,,2.07,,,,LearningTask,,,59.988729687,3,2015_May_27_1654,6,
-200,q,200,,,,,,,,,,,,,,,,,0,0,0,0,2,0,8,1,4,0,4,0,None,,,,,,,,,,,,214.766307116,None,0,,0.515013933182,0.00174403190613,217.765974045,,,,,,,,,,,,,,,,,,,2.23,,,,LearningTask,,,59.988729687,3,2015_May_27_1654,6,
-200,q,200,,,,,,,,,,,,,,,,,0,0,0,0,2,0,8,1,,,,,,,,,,,,,,,,,,,,,,,,,,,,,,,,,,,,,,,,,,,,,,LearningTask,,,59.988729687,3,2015_May_27_1654,6,
-200,a,-200,,,,,,,,,,,,,,,,,0,0,0,0,2,1,9,3,0,0,0,0,None,,,,,,,,,,,,217.990720987,None,0,,0.507894039154,0.000910997390747,220.9830091,,,,,,,,,,,,,,,,,,,0.29,,,,LearningTask,,,59.988729687,3,2015_May_27_1654,6,
-200,a,-200,,,,,,,,,,,,,,,,,0,0,0,0,2,1,9,3,1,0,1,0,None,,,,,,,,,,,,220.984032154,None,0,,0.514842033386,0.00158405303955,223.983527184,,,,,,,,,,,,,,,,,,,0.38,,,,LearningTask,,,59.988729687,3,2015_May_27_1654,6,
-200,a,-200,,,,,,,,,,,,,,,,,0,0,0,0,2,1,9,3,2,0,2,0,None,,,,,,,,,,,,223.984228134,None,0,,0.515273094177,0.00129294395447,226.983790159,,,,,,,,,,,,,,,,,,,0.75,,,,LearningTask,,,59.988729687,3,2015_May_27_1654,6,
-200,a,-200,,,,,,,,,,,,,,,,,0,0,0,0,2,1,9,3,3,0,3,0,None,,,,,,,,,,,,226.984775066,None,0,,0.515069007874,0.00145316123962,229.984327078,,,,,,,,,,,,,,,,,,,0.56,,,,LearningTask,,,59.988729687,3,2015_May_27_1654,6,
-200,a,-200,,,,,,,,,,,,,,,,,0,0,0,0,2,1,9,3,4,0,4,0,None,,,,,,,,,,,,229.985319138,None,0,,0.514949083328,0.00180292129517,232.984611988,,,,,,,,,,,,,,,,,,,0.71,,,,LearningTask,,,59.988729687,3,2015_May_27_1654,6,
-200,a,-200,,,,,,,,,,,,,,,,,0,0,0,0,2,1,9,3,,,,,,,,,,,,,,,,,,,,,,,,,,,,,,,,,,,,,,,,,,,,,,LearningTask,,,59.988729687,3,2015_May_27_1654,6,
200,s,-200,,,,,,,,,,,,,,,,,0,0,0,0,2,2,10,2,0,0,0,0,None,,,,,,,,,,,,233.216144085,None,0,,0.501743078232,0.000945091247559,236.218273163,,,,,,,,,,,,,,,,,,,2.24,,,,LearningTask,,,59.988729687,3,2015_May_27_1654,6,
200,s,-200,,,,,,,,,,,,,,,,,0,0,0,0,2,2,10,2,1,0,1,0,None,,,,,,,,,,,,236.219264984,None,0,,0.515170097351,0.00177097320557,239.218899965,,,,,,,,,,,,,,,,,,,1.79,,,,LearningTask,,,59.988729687,3,2015_May_27_1654,6,
200,s,-200,,,,,,,,,,,,,,,,,0,0,0,0,2,2,10,2,2,0,2,0,None,,,,,,,,,,,,239.219889164,None,0,,0.514986038208,0.00148105621338,242.219171047,,,,,,,,,,,,,,,,,,,2.05,,,,LearningTask,,,59.988729687,3,2015_May_27_1654,6,
200,s,-200,,,,,,,,,,,,,,,,,0,0,0,0,2,2,10,2,3,0,3,0,None,,,,,,,,,,,,242.22018218,None,0,,0.515258073807,0.00174593925476,245.219727993,,,,,,,,,,,,,,,,,,,1.79,,,,LearningTask,,,59.988729687,3,2015_May_27_1654,6,
200,s,-200,,,,,,,,,,,,,,,,,0,0,0,0,2,2,10,2,4,0,4,0,None,,,,,,,,,,,,245.220723152,None,0,,0.514955043793,0.00156712532043,248.220149994,,,,,,,,,,,,,,,,,,,1.86,,,,LearningTask,,,59.988729687,3,2015_May_27_1654,6,
200,s,-200,,,,,,,,,,,,,,,,,0,0,0,0,2,2,10,2,,,,,,,,,,,,,,,,,,,,,,,,,,,,,,,,,,,,,,,,,,,,,,LearningTask,,,59.988729687,3,2015_May_27_1654,6,
200,s,-200,,,,,,,,,,,,,,,,,0,0,0,0,2,3,11,2,0,0,0,0,None,,,,,,,,,,,,248.455276012,None,0,,0.514329195023,0.000941038131714,251.454168081,,,,,,,,,,,,,,,,,,,1.88,,,,LearningTask,,,59.988729687,3,2015_May_27_1654,6,
200,s,-200,,,,,,,,,,,,,,,,,0,0,0,0,2,3,11,2,1,0,1,0,None,,,,,,,,,,,,251.455175161,None,0,,0.514867067337,0.00155591964722,254.454266071,,,,,,,,,,,,,,,,,,,2.24,,,,LearningTask,,,59.988729687,3,2015_May_27_1654,6,
200,s,-200,,,,,,,,,,,,,,,,,0,0,0,0,2,3,11,2,2,0,2,0,None,,,,,,,,,,,,254.455267191,None,0,,0.515172958374,0.00159692764282,257.454603195,,,,,,,,,,,,,,,,,,,2.09,,,,LearningTask,,,59.988729687,3,2015_May_27_1654,6,
200,s,-200,,,,,,,,,,,,,,,,,0,0,0,0,2,3,11,2,3,0,3,0,None,,,,,,,,,,,,257.455593109,None,0,,0.515154123306,0.00175404548645,260.455302,,,,,,,,,,,,,,,,,,,1.86,,,,LearningTask,,,59.988729687,3,2015_May_27_1654,6,
200,s,-200,,,,,,,,,,,,,,,,,0,0,0,0,2,3,11,2,4,0,4,0,None,,,,,,,,,,,,260.456289053,None,0,,0.514801025391,0.00179409980774,263.455610991,,,,,,,,,,,,,,,,,,,1.85,,,,LearningTask,,,59.988729687,3,2015_May_27_1654,6,
200,s,-200,,,,,,,,,,,,,,,,,0,0,0,0,2,3,11,2,,,,,,,,,,,,,,,,,,,,,,,,,,,,,,,,,,,,,,,,,,,,,,LearningTask,,,59.988729687,3,2015_May_27_1654,6,
-200,a,-200,,,,,,,,,,,,,,,,,0,0,0,0,3,0,12,3,0,0,0,0,None,,,,,,,,,,,,263.740511179,None,0,,0.514685153961,0.000960111618042,266.739483118,,,,,,,,,,,,,,,,,,,0.88,,,,LearningTask,,,59.988729687,3,2015_May_27_1654,6,
-200,a,-200,,,,,,,,,,,,,,,,,0,0,0,0,3,0,12,3,1,0,1,0,None,,,,,,,,,,,,266.740473032,None,0,,0.515230894089,0.00176882743835,269.739850998,,,,,,,,,,,,,,,,,,,0.84,,,,LearningTask,,,59.988729687,3,2015_May_27_1654,6,
-200,a,-200,,,,,,,,,,,,,,,,,0,0,0,0,3,0,12,3,2,0,2,0,None,,,,,,,,,,,,269.740880966,None,0,,0.514981985092,0.00159120559692,272.74030304,,,,,,,,,,,,,,,,,,,1.22,,,,LearningTask,,,59.988729687,3,2015_May_27_1654,6,
-200,a,-200,,,,,,,,,,,,,,,,,0,0,0,0,3,0,12,3,3,0,3,0,None,,,,,,,,,,,,272.741299152,None,0,,0.515043020248,0.00159788131714,275.740769148,,,,,,,,,,,,,,,,,,,1.11,,,,LearningTask,,,59.988729687,3,2015_May_27_1654,6,
-200,a,-200,,,,,,,,,,,,,,,,,0,0,0,0,3,0,12,3,4,0,4,0,None,,,,,,,,,,,,275.741755962,None,0,,0.514912843704,0.00151395797729,278.740992069,,,,,,,,,,,,,,,,,,,1.05,,,,LearningTask,,,59.988729687,3,2015_May_27_1654,6,
-200,a,-200,,,,,,,,,,,,,,,,,0,0,0,0,3,0,12,3,,,,,,,,,,,,,,,,,,,,,,,,,,,,,,,,,,,,,,,,,,,,,,LearningTask,,,59.988729687,3,2015_May_27_1654,6,
200,s,-200,,,,,,,,,,,,,,,,,0,0,0,0,3,1,13,2,0,0,0,0,None,,,,,,,,,,,,278.992729187,None,0,,0.514951944351,0.000961065292358,281.991615057,,,,,,,,,,,,,,,,,,,0.52,,,,LearningTask,,,59.988729687,3,2015_May_27_1654,6,
200,s,-200,,,,,,,,,,,,,,,,,0,0,0,0,3,1,13,2,1,0,1,0,None,,,,,,,,,,,,281.992614985,None,0,,0.51483297348,0.00152397155762,284.991902113,,,,,,,,,,,,,,,,,,,0.25,,,,LearningTask,,,59.988729687,3,2015_May_27_1654,6,
200,s,-200,,,,,,,,,,,,,,,,,0,0,0,0,3,1,13,2,2,0,2,0,None,,,,,,,,,,,,284.99289608,None,0,,0.515106201172,0.00168800354004,287.992433071,,,,,,,,,,,,,,,,,,,0.33,,,,LearningTask,,,59.988729687,3,2015_May_27_1654,6,
200,s,-200,,,,,,,,,,,,,,,,,0,0,0,0,3,1,13,2,3,0,3,0,None,,,,,,,,,,,,287.993424177,None,0,,0.515109777451,0.00144386291504,290.992863178,,,,,,,,,,,,,,,,,,,0.6,,,,LearningTask,,,59.988729687,3,2015_May_27_1654,6,
200,s,-200,,,,,,,,,,,,,,,,,0,0,0,0,3,1,13,2,4,0,4,0,None,,,,,,,,,,,,290.993858099,None,0,,0.514937877655,0.00156903266907,293.99322319,,,,,,,,,,,,,,,,,,,0.38,,,,LearningTask,,,59.988729687,3,2015_May_27_1654,6,
200,s,-200,,,,,,,,,,,,,,,,,0,0,0,0,3,1,13,2,,,,,,,,,,,,,,,,,,,,,,,,,,,,,,,,,,,,,,,,,,,,,,LearningTask,,,59.988729687,3,2015_May_27_1654,6,
200,s,-200,,,,,,,,,,,,,,,,,0,0,0,0,3,2,14,2,0,0,0,0,None,,,,,,,,,,,,294.24905014,None,0,,0.510403871536,0.000947952270508,297.243643045,,,,,,,,,,,,,,,,,,,1.12,,,,LearningTask,,,59.988729687,3,2015_May_27_1654,6,
200,s,-200,,,,,,,,,,,,,,,,,0,0,0,0,3,2,14,2,1,0,1,0,None,,,,,,,,,,,,297.244646072,None,0,,0.515195131302,0.00157308578491,300.24429512,,,,,,,,,,,,,,,,,,,1.2,,,,LearningTask,,,59.988729687,3,2015_May_27_1654,6,
200,s,-200,,,,,,,,,,,,,,,,,0,0,0,0,3,2,14,2,2,0,2,0,None,,,,,,,,,,,,300.245296001,None,0,,0.514808893204,0.00176906585693,303.244338989,,,,,,,,,,,,,,,,,,,1.13,,,,LearningTask,,,59.988729687,3,2015_May_27_1654,6,
200,s,-200,,,,,,,,,,,,,,,,,0,0,0,0,3,2,14,2,3,0,3,0,None,,,,,,,,,,,,303.245043039,None,0,,0.515621900558,0.00127005577087,306.24496007,,,,,,,,,,,,,,,,,,,0.91,,,,LearningTask,,,59.988729687,3,2015_May_27_1654,6,
200,s,-200,,,,,,,,,,,,,,,,,0,0,0,0,3,2,14,2,4,0,4,0,None,,,,,,,,,,,,306.245959997,None,0,,0.515045166016,0.00156712532043,309.245061159,,,,,,,,,,,,,,,,,,,1.23,,,,LearningTask,,,59.988729687,3,2015_May_27_1654,6,
200,s,-200,,,,,,,,,,,,,,,,,0,0,0,0,3,2,14,2,,,,,,,,,,,,,,,,,,,,,,,,,,,,,,,,,,,,,,,,,,,,,,LearningTask,,,59.988729687,3,2015_May_27_1654,6,
-200,q,200,,,,,,,,,,,,,,,,,0,0,0,0,3,3,15,1,0,0,0,0,None,,,,,,,,,,,,309.509060144,None,0,,0.50608587265,0.000963926315308,312.512556076,,,,,,,,,,,,,,,,,,,1.18,,,,LearningTask,,,59.988729687,3,2015_May_27_1654,6,
-200,q,200,,,,,,,,,,,,,,,,,0,0,0,0,3,3,15,1,1,0,1,0,None,,,,,,,,,,,,312.513548136,None,0,,0.514966964722,0.00209307670593,315.51289916,,,,,,,,,,,,,,,,,,,0.83,,,,LearningTask,,,59.988729687,3,2015_May_27_1654,6,
-200,q,200,,,,,,,,,,,,,,,,,0,0,0,0,3,3,15,1,2,0,2,0,None,,,,,,,,,,,,315.513895035,None,0,,0.515038967133,0.001620054245,318.513364077,,,,,,,,,,,,,,,,,,,1.24,,,,LearningTask,,,59.988729687,3,2015_May_27_1654,6,
-200,q,200,,,,,,,,,,,,,,,,,0,0,0,0,3,3,15,1,3,0,3,0,None,,,,,,,,,,,,318.514353037,None,0,,0.515336990356,0.00148797035217,321.513674974,,,,,,,,,,,,,,,,,,,0.9,,,,LearningTask,,,59.988729687,3,2015_May_27_1654,6,
-200,q,200,,,,,,,,,,,,,,,,,0,0,0,0,3,3,15,1,4,0,4,0,None,,,,,,,,,,,,321.514374018,None,0,,0.515683889389,0.00124788284302,324.514125109,,,,,,,,,,,,,,,,,,,1.19,,,,LearningTask,,,59.988729687,3,2015_May_27_1654,6,
-200,q,200,,,,,,,,,,,,,,,,,0,0,0,0,3,3,15,1,,,,,,,,,,,,,,,,,,,,,,,,,,,,,,,,,,,,,,,,,,,,,,LearningTask,,,59.988729687,3,2015_May_27_1654,6,
-200,q,200,,,,,,,,,,,,,,,,,0,0,0,0,4,0,16,1,0,0,0,0,None,,,,,,,,,,,,324.810353994,None,0,,0.503494977951,0.000917911529541,327.814761162,,,,,,,,,,,,,,,,,,,4.02,,,,LearningTask,,,59.988729687,3,2015_May_27_1654,6,
-200,q,200,,,,,,,,,,,,,,,,,0,0,0,0,4,0,16,1,1,0,1,0,None,,,,,,,,,,,,327.81575799,None,0,,0.51495885849,0.00157189369202,330.815003157,,,,,,,,,,,,,,,,,,,4.05,,,,LearningTask,,,59.988729687,3,2015_May_27_1654,6,
-200,q,200,,,,,,,,,,,,,,,,,0,0,0,0,4,0,16,1,2,0,2,0,None,,,,,,,,,,,,330.815986156,None,0,,0.515053033829,0.00161099433899,333.815533161,,,,,,,,,,,,,,,,,,,3.96,,,,LearningTask,,,59.988729687,3,2015_May_27_1654,6,
-200,q,200,,,,,,,,,,,,,,,,,0,0,0,0,4,0,16,1,3,0,3,0,None,,,,,,,,,,,,333.816541195,None,0,,0.514971017838,0.00177597999573,336.816040039,,,,,,,,,,,,,,,,,,,4.24,,,,LearningTask,,,59.988729687,3,2015_May_27_1654,6,
-200,q,200,,,,,,,,,,,,,,,,,0,0,0,0,4,0,16,1,4,0,4,0,None,,,,,,,,,,,,336.817028999,None,0,,0.514929056168,0.00154209136963,339.81646204,,,,,,,,,,,,,,,,,,,4.16,,,,LearningTask,,,59.988729687,3,2015_May_27_1654,6,
-200,q,200,,,,,,,,,,,,,,,,,0,0,0,0,4,0,16,1,,,,,,,,,,,,,,,,,,,,,,,,,,,,,,,,,,,,,,,,,,,,,,LearningTask,,,59.988729687,3,2015_May_27_1654,6,
-200,a,-200,,,,,,,,,,,,,,,,,0,0,0,0,4,1,17,3,0,0,0,0,None,,,,,,,,,,,,340.088910103,None,0,,0.510674953461,0.000947952270508,343.083755016,,,,,,,,,,,,,,,,,,,1.15,,,,LearningTask,,,59.988729687,3,2015_May_27_1654,6,
-200,a,-200,,,,,,,,,,,,,,,,,0,0,0,0,4,1,17,3,1,0,1,0,None,,,,,,,,,,,,343.084773064,None,0,,0.514786958694,0.00180888175964,346.083769083,,,,,,,,,,,,,,,,,,,1.06,,,,LearningTask,,,59.988729687,3,2015_May_27_1654,6,
-200,a,-200,,,,,,,,,,,,,,,,,0,0,0,0,4,1,17,3,2,0,2,0,None,,,,,,,,,,,,346.084465027,None,0,,0.515660047531,0.00125908851624,349.084221125,,,,,,,,,,,,,,,,,,,1.16,,,,LearningTask,,,59.988729687,3,2015_May_27_1654,6,
-200,a,-200,,,,,,,,,,,,,,,,,0,0,0,0,4,1,17,3,3,0,3,0,None,,,,,,,,,,,,349.084733009,None,0,,0.515858888626,0.00176596641541,352.08455801,,,,,,,,,,,,,,,,,,,1.17,,,,LearningTask,,,59.988729687,3,2015_May_27_1654,6,
-200,a,-200,,,,,,,,,,,,,,,,,0,0,0,0,4,1,17,3,4,0,4,0,None,,,,,,,,,,,,352.085245132,None,0,,0.51565694809,0.0012640953064,355.085431099,,,,,,,,,,,,,,,,,,,1.04,,,,LearningTask,,,59.988729687,3,2015_May_27_1654,6,
-200,a,-200,,,,,,,,,,,,,,,,,0,0,0,0,4,1,17,3,,,,,,,,,,,,,,,,,,,,,,,,,,,,,,,,,,,,,,,,,,,,,,LearningTask,,,59.988729687,3,2015_May_27_1654,6,
-200,a,-200,,,,,,,,,,,,,,,,,0,0,0,0,4,2,18,3,0,0,0,0,None,,,,,,,,,,,,355.367653131,None,0,,0.500425100327,0.000907182693481,358.368891001,,,,,,,,,,,,,,,,,,,2.17,,,,LearningTask,,,59.988729687,3,2015_May_27_1654,6,
-200,a,-200,,,,,,,,,,,,,,,,,0,0,0,0,4,2,18,3,1,0,1,0,None,,,,,,,,,,,,358.369882107,None,0,,0.515311956406,0.00155591964722,361.369452,,,,,,,,,,,,,,,,,,,2.24,,,,LearningTask,,,59.988729687,3,2015_May_27_1654,6,
-200,a,-200,,,,,,,,,,,,,,,,,0,0,0,0,4,2,18,3,2,0,2,0,None,,,,,,,,,,,,361.370448112,None,0,,0.515279054642,0.0015881061554,364.369908094,,,,,,,,,,,,,,,,,,,1.96,,,,LearningTask,,,59.988729687,3,2015_May_27_1654,6,
-200,a,-200,,,,,,,,,,,,,,,,,0,0,0,0,4,2,18,3,3,0,3,0,None,,,,,,,,,,,,364.370898008,None,0,,0.515030145645,0.00159406661987,367.370441198,,,,,,,,,,,,,,,,,,,1.84,,,,LearningTask,,,59.988729687,3,2015_May_27_1654,6,
-200,a,-200,,,,,,,,,,,,,,,,,0,0,0,0,4,2,18,3,4,0,4,0,None,,,,,,,,,,,,367.371427059,None,0,,0.515045881271,0.00155591964722,370.370676041,,,,,,,,,,,,,,,,,,,2.19,,,,LearningTask,,,59.988729687,3,2015_May_27_1654,6,
-200,a,-200,,,,,,,,,,,,,,,,,0,0,0,0,4,2,18,3,,,,,,,,,,,,,,,,,,,,,,,,,,,,,,,,,,,,,,,,,,,,,,LearningTask,,,59.988729687,3,2015_May_27_1654,6,
200,w,200,,,,,,,,,,,,,,,,,0,0,0,0,4,3,19,0,0,0,0,0,None,,,,,,,,,,,,370.659432173,None,0,,0.510854005814,0.000963926315308,373.654425144,,,,,,,,,,,,,,,,,,,0.86,,,,LearningTask,,,59.988729687,3,2015_May_27_1654,6,
200,w,200,,,,,,,,,,,,,,,,,0,0,0,0,4,3,19,0,1,0,1,0,None,,,,,,,,,,,,373.655411005,None,0,,0.51519203186,0.00158214569092,376.654900074,,,,,,,,,,,,,,,,,,,1.19,,,,LearningTask,,,59.988729687,3,2015_May_27_1654,6,
200,w,200,,,,,,,,,,,,,,,,,0,0,0,0,4,3,19,0,2,0,2,0,None,,,,,,,,,,,,376.655894995,None,0,,0.515254020691,0.00178098678589,379.655281067,,,,,,,,,,,,,,,,,,,0.85,,,,LearningTask,,,59.988729687,3,2015_May_27_1654,6,
200,w,200,,,,,,,,,,,,,,,,,0,0,0,0,4,3,19,0,3,0,3,0,None,,,,,,,,,,,,379.656280994,None,0,,0.515084028244,0.0014009475708,382.655825138,,,,,,,,,,,,,,,,,,,0.93,,,,LearningTask,,,59.988729687,3,2015_May_27_1654,6,
200,w,200,,,,,,,,,,,,,,,,,0,0,0,0,4,3,19,0,4,0,4,0,None,,,,,,,,,,,,382.656815052,None,0,,0.51497220993,0.00160717964172,385.656290054,,,,,,,,,,,,,,,,,,,0.92,,,,LearningTask,,,59.988729687,3,2015_May_27_1654,6,
200,w,200,,,,,,,,,,,,,,,,,0,0,0,0,4,3,19,0,,,,,,,,,,,,,,,,,,,,,,,,,,,,,,,,,,,,,,,,,,,,,,LearningTask,,,59.988729687,3,2015_May_27_1654,6,
200,w,200,,,,,,,,,,,,,,,,,0,0,0,0,5,0,20,0,0,0,0,0,None,,,,,,,,,,,,385.988301039,None,0,,0.502588033676,0.000916004180908,388.990252018,,,,,,,,,,,,,,,,,,,0.83,,,,LearningTask,,,59.988729687,3,2015_May_27_1654,6,
200,w,200,,,,,,,,,,,,,,,,,0,0,0,0,5,0,20,0,1,0,1,0,None,,,,,,,,,,,,388.991248131,None,0,,0.514756917953,0.00157308578491,391.99044919,,,,,,,,,,,,,,,,,,,0.89,,,,LearningTask,,,59.988729687,3,2015_May_27_1654,6,
200,w,200,,,,,,,,,,,,,,,,,0,0,0,0,5,0,20,0,2,0,2,0,None,,,,,,,,,,,,391.991436005,None,0,,0.515066862106,0.00159406661987,394.99104619,,,,,,,,,,,,,,,,,,,1.04,,,,LearningTask,,,59.988729687,3,2015_May_27_1654,6,
200,w,200,,,,,,,,,,,,,,,,,0,0,0,0,5,0,20,0,3,0,3,0,None,,,,,,,,,,,,394.992035151,None,0,,0.514872074127,0.00179600715637,397.991501093,,,,,,,,,,,,,,,,,,,0.95,,,,LearningTask,,,59.988729687,3,2015_May_27_1654,6,
200,w,200,,,,,,,,,,,,,,,,,0,0,0,0,5,0,20,0,4,0,4,0,None,,,,,,,,,,,,397.99250102,None,0,,0.514897108078,0.00157499313354,400.991883993,,,,,,,,,,,,,,,,,,,1.17,,,,LearningTask,,,59.988729687,3,2015_May_27_1654,6,
200,w,200,,,,,,,,,,,,,,,,,0,0,0,0,5,0,20,0,,,,,,,,,,,,,,,,,,,,,,,,,,,,,,,,,,,,,,,,,,,,,,LearningTask,,,59.988729687,3,2015_May_27_1654,6,
-200,a,-200,,,,,,,,,,,,,,,,,0,0,0,0,5,1,21,3,0,0,0,0,None,,,,,,,,,,,,401.293066978,None,0,,0.514969110489,0.00107502937317,404.292100191,,,,,,,,,,,,,,,,,,,0.37,,,,LearningTask,,,59.988729687,3,2015_May_27_1654,6,
-200,a,-200,,,,,,,,,,,,,,,,,0,0,0,0,5,1,21,3,1,0,1,0,None,,,,,,,,,,,,404.292793036,None,0,,0.515597105026,0.00124001502991,407.292562008,,,,,,,,,,,,,,,,,,,0.71,,,,LearningTask,,,59.988729687,3,2015_May_27_1654,6,
-200,a,-200,,,,,,,,,,,,,,,,,0,0,0,0,5,1,21,3,2,0,2,0,None,,,,,,,,,,,,407.293558121,None,0,,0.515208959579,0.00129508972168,410.293081999,,,,,,,,,,,,,,,,,,,0.28,,,,LearningTask,,,59.988729687,3,2015_May_27_1654,6,
-200,a,-200,,,,,,,,,,,,,,,,,0,0,0,0,5,1,21,3,3,0,3,0,None,,,,,,,,,,,,410.294072151,None,0,,0.515026092529,0.0013689994812,413.293711185,,,,,,,,,,,,,,,,,,,0.7,,,,LearningTask,,,59.988729687,3,2015_May_27_1654,6,
-200,a,-200,,,,,,,,,,,,,,,,,0,0,0,0,5,1,21,3,4,0,4,0,None,,,,,,,,,,,,413.294703007,None,0,,0.514754056931,0.00133609771729,416.29392314,,,,,,,,,,,,,,,,,,,0.51,,,,LearningTask,,,59.988729687,3,2015_May_27_1654,6,
-200,a,-200,,,,,,,,,,,,,,,,,0,0,0,0,5,1,21,3,,,,,,,,,,,,,,,,,,,,,,,,,,,,,,,,,,,,,,,,,,,,,,LearningTask,,,59.988729687,3,2015_May_27_1654,6,
-200,a,-200,,,,,,,,,,,,,,,,,0,0,0,0,5,2,22,3,0,0,0,0,None,,,,,,,,,,,,416.600769043,None,0,,0.509508132935,0.000959157943726,419.594834089,,,,,,,,,,,,,,,,,,,0.55,,,,LearningTask,,,59.988729687,3,2015_May_27_1654,6,
-200,a,-200,,,,,,,,,,,,,,,,,0,0,0,0,5,2,22,3,1,0,1,0,None,,,,,,,,,,,,419.595827103,None,0,,0.514619827271,0.0018048286438,422.594738007,,,,,,,,,,,,,,,,,,,0.74,,,,LearningTask,,,59.988729687,3,2015_May_27_1654,6,
-200,a,-200,,,,,,,,,,,,,,,,,0,0,0,0,5,2,22,3,2,0,2,0,None,,,,,,,,,,,,422.595735073,None,0,,0.515126943588,0.00153088569641,425.595142126,,,,,,,,,,,,,,,,,,,0.51,,,,LearningTask,,,59.988729687,3,2015_May_27_1654,6,
-200,a,-200,,,,,,,,,,,,,,,,,0,0,0,0,5,2,22,3,3,0,3,0,None,,,,,,,,,,,,425.596131086,None,0,,0.515107154846,0.00155401229858,428.59584403,,,,,,,,,,,,,,,,,,,0.44,,,,LearningTask,,,59.988729687,3,2015_May_27_1654,6,
-200,a,-200,,,,,,,,,,,,,,,,,0,0,0,0,5,2,22,3,4,0,4,0,None,,,,,,,,,,,,428.596834183,None,0,,0.514825820923,0.00149488449097,431.596306086,,,,,,,,,,,,,,,,,,,0.28,,,,LearningTask,,,59.988729687,3,2015_May_27_1654,6,
-200,a,-200,,,,,,,,,,,,,,,,,0,0,0,0,5,2,22,3,,,,,,,,,,,,,,,,,,,,,,,,,,,,,,,,,,,,,,,,,,,,,,LearningTask,,,59.988729687,3,2015_May_27_1654,6,
200,s,-200,,,,,,,,,,,,,,,,,0,0,0,0,5,3,23,2,0,0,0,0,None,,,,,,,,,,,,431.90605998,None,0,,0.506240844727,0.000944852828979,434.896434069,,,,,,,,,,,,,,,,,,,4.03,,,,LearningTask,,,59.988729687,3,2015_May_27_1654,6,
200,s,-200,,,,,,,,,,,,,,,,,0,0,0,0,5,3,23,2,1,0,1,0,None,,,,,,,,,,,,434.897135019,None,0,,0.515580892563,0.00129699707031,437.897009134,,,,,,,,,,,,,,,,,,,3.94,,,,LearningTask,,,59.988729687,3,2015_May_27_1654,6,
200,s,-200,,,,,,,,,,,,,,,,,0,0,0,0,5,3,23,2,2,0,2,0,None,,,,,,,,,,,,437.897706985,None,0,,0.515488862991,0.00129103660583,440.897399187,,,,,,,,,,,,,,,,,,,3.76,,,,LearningTask,,,59.988729687,3,2015_May_27_1654,6,
200,s,-200,,,,,,,,,,,,,,,,,0,0,0,0,5,3,23,2,3,0,3,0,None,,,,,,,,,,,,440.898101091,None,0,,0.515355825424,0.00127100944519,443.897606134,,,,,,,,,,,,,,,,,,,4.14,,,,LearningTask,,,59.988729687,3,2015_May_27_1654,6,
200,s,-200,,,,,,,,,,,,,,,,,0,0,0,0,5,3,23,2,4,0,4,0,None,,,,,,,,,,,,443.898305178,None,0,,0.515736103058,0.00118589401245,446.898149014,,,,,,,,,,,,,,,,,,,4.06,,,,LearningTask,,,59.988729687,3,2015_May_27_1654,6,
200,s,-200,,,,,,,,,,,,,,,,,0,0,0,0,5,3,23,2,,,,,,,,,,,,,,,,,,,,,,,,,,,,,,,,,,,,,,,,,,,,,,LearningTask,,,59.988729687,3,2015_May_27_1654,6,
-200,a,-200,,,,,,,,,,,,,,,,,0,0,0,0,6,0,24,3,0,0,0,0,None,,,,,,,,,,,,447.261773109,None,0,,0.502796173096,0.000988006591797,450.265452147,,,,,,,,,,,,,,,,,,,1.95,,,,LearningTask,,,59.988729687,3,2015_May_27_1654,6,
-200,a,-200,,,,,,,,,,,,,,,,,0,0,0,0,6,0,24,3,1,0,1,0,None,,,,,,,,,,,,450.266441107,None,0,,0.51483798027,0.00172901153564,453.265705109,,,,,,,,,,,,,,,,,,,2.21,,,,LearningTask,,,59.988729687,3,2015_May_27_1654,6,
-200,a,-200,,,,,,,,,,,,,,,,,0,0,0,0,6,0,24,3,2,0,2,0,None,,,,,,,,,,,,453.266698122,None,0,,0.514951944351,0.00140190124512,456.266201973,,,,,,,,,,,,,,,,,,,2.04,,,,LearningTask,,,59.988729687,3,2015_May_27_1654,6,
-200,a,-200,,,,,,,,,,,,,,,,,0,0,0,0,6,0,24,3,3,0,3,0,None,,,,,,,,,,,,456.266904116,None,0,,0.515424013138,0.00118613243103,459.266967058,,,,,,,,,,,,,,,,,,,2.06,,,,LearningTask,,,59.988729687,3,2015_May_27_1654,6,
-200,a,-200,,,,,,,,,,,,,,,,,0,0,0,0,6,0,24,3,4,0,4,0,None,,,,,,,,,,,,459.267891169,None,0,,0.515091896057,0.00128698348999,462.267079115,,,,,,,,,,,,,,,,,,,2.09,,,,LearningTask,,,59.988729687,3,2015_May_27_1654,6,
-200,a,-200,,,,,,,,,,,,,,,,,0,0,0,0,6,0,24,3,,,,,,,,,,,,,,,,,,,,,,,,,,,,,,,,,,,,,,,,,,,,,,LearningTask,,,59.988729687,3,2015_May_27_1654,6,
-200,q,200,,,,,,,,,,,,,,,,,0,0,0,0,6,1,25,1,0,0,0,0,None,,,,,,,,,,,,462.597233057,None,0,,0.502912998199,0.00095796585083,465.60101819,,,,,,,,,,,,,,,,,,,0.42,,,,LearningTask,,,59.988729687,3,2015_May_27_1654,6,
-200,q,200,,,,,,,,,,,,,,,,,0,0,0,0,6,1,25,1,1,0,1,0,None,,,,,,,,,,,,465.602012157,None,0,,0.514833927155,0.00174784660339,468.601221085,,,,,,,,,,,,,,,,,,,0.29,,,,LearningTask,,,59.988729687,3,2015_May_27_1654,6,
-200,q,200,,,,,,,,,,,,,,,,,0,0,0,0,6,1,25,1,2,0,2,0,None,,,,,,,,,,,,468.602212191,None,0,,0.515331029892,0.00152897834778,471.60196209,,,,,,,,,,,,,,,,,,,0.44,,,,LearningTask,,,59.988729687,3,2015_May_27_1654,6,
-200,q,200,,,,,,,,,,,,,,,,,0,0,0,0,6,1,25,1,3,0,3,0,None,,,,,,,,,,,,471.602705002,None,0,,0.515017986298,0.00125193595886,474.602185965,,,,,,,,,,,,,,,,,,,0.29,,,,LearningTask,,,59.988729687,3,2015_May_27_1654,6,
-200,q,200,,,,,,,,,,,,,,,,,0,0,0,0,6,1,25,1,4,0,4,0,None,,,,,,,,,,,,474.603176117,None,0,,0.514897823334,0.00159692764282,477.602487087,,,,,,,,,,,,,,,,,,,0.67,,,,LearningTask,,,59.988729687,3,2015_May_27_1654,6,
-200,q,200,,,,,,,,,,,,,,,,,0,0,0,0,6,1,25,1,,,,,,,,,,,,,,,,,,,,,,,,,,,,,,,,,,,,,,,,,,,,,,LearningTask,,,59.988729687,3,2015_May_27_1654,6,
-200,a,-200,,,,,,,,,,,,,,,,,0,0,0,0,6,2,26,3,0,0,0,0,None,,,,,,,,,,,,477.921900988,None,0,,0.513568162918,0.000917196273804,480.919991016,,,,,,,,,,,,,,,,,,,3.93,,,,LearningTask,,,59.988729687,3,2015_May_27_1654,6,
-200,a,-200,,,,,,,,,,,,,,,,,0,0,0,0,6,2,26,3,1,0,1,0,None,,,,,,,,,,,,480.920979977,None,0,,0.514909982681,0.00176405906677,483.920189142,,,,,,,,,,,,,,,,,,,3.8,,,,LearningTask,,,59.988729687,3,2015_May_27_1654,6,
-200,a,-200,,,,,,,,,,,,,,,,,0,0,0,0,6,2,26,3,2,0,2,0,None,,,,,,,,,,,,483.921193123,None,0,,0.514961004257,0.00144696235657,486.920572996,,,,,,,,,,,,,,,,,,,3.98,,,,LearningTask,,,59.988729687,3,2015_May_27_1654,6,
-200,a,-200,,,,,,,,,,,,,,,,,0,0,0,0,6,2,26,3,3,0,3,0,None,,,,,,,,,,,,486.921560049,None,0,,0.515194177628,0.00144100189209,489.920878172,,,,,,,,,,,,,,,,,,,4.25,,,,LearningTask,,,59.988729687,3,2015_May_27_1654,6,
-200,a,-200,,,,,,,,,,,,,,,,,0,0,0,0,6,2,26,3,4,0,4,0,None,,,,,,,,,,,,489.922039032,None,0,,0.515003919601,0.00127792358398,492.921370029,,,,,,,,,,,,,,,,,,,3.81,,,,LearningTask,,,59.988729687,3,2015_May_27_1654,6,
-200,a,-200,,,,,,,,,,,,,,,,,0,0,0,0,6,2,26,3,,,,,,,,,,,,,,,,,,,,,,,,,,,,,,,,,,,,,,,,,,,,,,LearningTask,,,59.988729687,3,2015_May_27_1654,6,
200,s,-200,,,,,,,,,,,,,,,,,0,0,0,0,6,3,27,2,0,0,0,0,None,,,,,,,,,,,,493.254402161,None,0,,0.516736030579,0.000915050506592,496.255063057,,,,,,,,,,,,,,,,,,,0.88,,,,LearningTask,,,59.988729687,3,2015_May_27_1654,6,
200,s,-200,,,,,,,,,,,,,,,,,0,0,0,0,6,3,27,2,1,0,1,0,None,,,,,,,,,,,,496.2557621,None,0,,0.51552605629,0.0012481212616,499.255724192,,,,,,,,,,,,,,,,,,,1.11,,,,LearningTask,,,59.988729687,3,2015_May_27_1654,6,
200,s,-200,,,,,,,,,,,,,,,,,0,0,0,0,6,3,27,2,2,0,2,0,None,,,,,,,,,,,,499.256512165,None,0,,0.515344142914,0.00129318237305,502.255930185,,,,,,,,,,,,,,,,,,,0.82,,,,LearningTask,,,59.988729687,3,2015_May_27_1654,6,
200,s,-200,,,,,,,,,,,,,,,,,0,0,0,0,6,3,27,2,3,0,3,0,None,,,,,,,,,,,,502.256940126,None,0,,0.51513004303,0.00156807899475,505.256411076,,,,,,,,,,,,,,,,,,,0.75,,,,LearningTask,,,59.988729687,3,2015_May_27_1654,6,
200,s,-200,,,,,,,,,,,,,,,,,0,0,0,0,6,3,27,2,4,0,4,0,None,,,,,,,,,,,,505.257398129,None,0,,0.515028953552,0.00151801109314,508.256945133,,,,,,,,,,,,,,,,,,,1.25,,,,LearningTask,,,59.988729687,3,2015_May_27_1654,6,
200,s,-200,,,,,,,,,,,,,,,,,0,0,0,0,6,3,27,2,,,,,,,,,,,,,,,,,,,,,,,,,,,,,,,,,,,,,,,,,,,,,,LearningTask,,,59.988729687,3,2015_May_27_1654,6,
-200,a,-200,,,,,,,,,,,,,,,,,0,0,0,0,7,0,28,3,0,0,0,0,None,,,,,,,,,,,,508.638767004,None,0,,0.501109838486,0.00119185447693,511.640516043,,,,,,,,,,,,,,,,,,,1.87,,,,LearningTask,,,59.988729687,3,2015_May_27_1654,6,
-200,a,-200,,,,,,,,,,,,,,,,,0,0,0,0,7,0,28,3,1,0,1,0,None,,,,,,,,,,,,511.64121604,None,0,,0.515633821487,0.00124597549438,514.641363144,,,,,,,,,,,,,,,,,,,2.22,,,,LearningTask,,,59.988729687,3,2015_May_27_1654,6,
-200,a,-200,,,,,,,,,,,,,,,,,0,0,0,0,7,0,28,3,2,0,2,0,None,,,,,,,,,,,,514.642354012,None,0,,0.514885902405,0.00172400474548,517.641595125,,,,,,,,,,,,,,,,,,,1.83,,,,LearningTask,,,59.988729687,3,2015_May_27_1654,6,
-200,a,-200,,,,,,,,,,,,,,,,,0,0,0,0,7,0,28,3,3,0,3,0,None,,,,,,,,,,,,517.642585993,None,0,,0.515065908432,0.00149703025818,520.641998053,,,,,,,,,,,,,,,,,,,1.75,,,,LearningTask,,,59.988729687,3,2015_May_27_1654,6,
-200,a,-200,,,,,,,,,,,,,,,,,0,0,0,0,7,0,28,3,4,0,4,0,None,,,,,,,,,,,,520.643047094,None,0,,0.515037059784,0.00180292129517,523.642367125,,,,,,,,,,,,,,,,,,,2.03,,,,LearningTask,,,59.988729687,3,2015_May_27_1654,6,
-200,a,-200,,,,,,,,,,,,,,,,,0,0,0,0,7,0,28,3,,,,,,,,,,,,,,,,,,,,,,,,,,,,,,,,,,,,,,,,,,,,,,LearningTask,,,59.988729687,3,2015_May_27_1654,6,
200,w,200,,,,,,,,,,,,,,,,,0,0,0,0,7,1,29,0,0,0,0,0,None,,,,,,,,,,,,523.988345146,None,0,,0.503546953201,0.00114011764526,526.992789984,,,,,,,,,,,,,,,,,,,3.97,,,,LearningTask,,,59.988729687,3,2015_May_27_1654,6,
200,w,200,,,,,,,,,,,,,,,,,0,0,0,0,7,1,29,0,1,0,1,0,None,,,,,,,,,,,,526.993520975,None,0,,0.515538930893,0.00118780136108,529.993262053,,,,,,,,,,,,,,,,,,,3.89,,,,LearningTask,,,59.988729687,3,2015_May_27_1654,6,
200,w,200,,,,,,,,,,,,,,,,,0,0,0,0,7,1,29,0,2,0,2,0,None,,,,,,,,,,,,529.993964195,None,0,,0.515528917313,0.00122594833374,532.993759155,,,,,,,,,,,,,,,,,,,4.0,,,,LearningTask,,,59.988729687,3,2015_May_27_1654,6,
200,w,200,,,,,,,,,,,,,,,,,0,0,0,0,7,1,29,0,3,0,3,0,None,,,,,,,,,,,,532.994518995,None,0,,0.515273809433,0.0012309551239,535.994102001,,,,,,,,,,,,,,,,,,,4.24,,,,LearningTask,,,59.988729687,3,2015_May_27_1654,6,
200,w,200,,,,,,,,,,,,,,,,,0,0,0,0,7,1,29,0,4,0,4,0,None,,,,,,,,,,,,535.995098114,None,0,,0.514957904816,0.00145602226257,538.994644165,,,,,,,,,,,,,,,,,,,3.85,,,,LearningTask,,,59.988729687,3,2015_May_27_1654,6,
200,w,200,,,,,,,,,,,,,,,,,0,0,0,0,7,1,29,0,,,,,,,,,,,,,,,,,,,,,,,,,,,,,,,,,,,,,,,,,,,,,,LearningTask,,,59.988729687,3,2015_May_27_1654,6,
-200,q,200,,,,,,,,,,,,,,,,,0,0,0,0,7,2,30,1,0,0,0,0,None,,,,,,,,,,,,539.351049185,None,0,,0.509724140167,0.000990152359009,542.345125198,,,,,,,,,,,,,,,,,,,0.89,,,,LearningTask,,,59.988729687,3,2015_May_27_1654,6,
-200,q,200,,,,,,,,,,,,,,,,,0,0,0,0,7,2,30,1,1,0,1,0,None,,,,,,,,,,,,542.346111059,None,0,,0.515069007874,0.00151896476746,545.345273972,,,,,,,,,,,,,,,,,,,1.09,,,,LearningTask,,,59.988729687,3,2015_May_27_1654,6,
-200,q,200,,,,,,,,,,,,,,,,,0,0,0,0,7,2,30,1,2,0,2,0,None,,,,,,,,,,,,545.346379995,None,0,,0.515086889267,0.00169086456299,548.345795155,,,,,,,,,,,,,,,,,,,0.81,,,,LearningTask,,,59.988729687,3,2015_May_27_1654,6,
-200,q,200,,,,,,,,,,,,,,,,,0,0,0,0,7,2,30,1,3,0,3,0,None,,,,,,,,,,,,548.346852064,None,0,,0.515022039413,0.00171494483948,551.346374989,,,,,,,,,,,,,,,,,,,0.8,,,,LearningTask,,,59.988729687,3,2015_May_27_1654,6,
-200,q,200,,,,,,,,,,,,,,,,,0,0,0,0,7,2,30,1,4,0,4,0,None,,,,,,,,,,,,551.347366095,None,0,,0.514956951141,0.00164294242859,554.346585989,,,,,,,,,,,,,,,,,,,1.05,,,,LearningTask,,,59.988729687,3,2015_May_27_1654,6,
-200,q,200,,,,,,,,,,,,,,,,,0,0,0,0,7,2,30,1,,,,,,,,,,,,,,,,,,,,,,,,,,,,,,,,,,,,,,,,,,,,,,LearningTask,,,59.988729687,3,2015_May_27_1654,6,
-200,a,-200,,,,,,,,,,,,,,,,,0,0,0,0,7,3,31,3,0,0,0,0,None,,,,,,,,,,,,554.708971024,None,0,,0.504002809525,0.000977993011475,557.697211027,,,,,,,,,,,,,,,,,,,1.15,,,,LearningTask,,,59.988729687,3,2015_May_27_1654,6,
-200,a,-200,,,,,,,,,,,,,,,,,0,0,0,0,7,3,31,3,1,0,1,0,None,,,,,,,,,,,,557.69822216,None,0,,0.514986038208,0.0012309551239,560.697816133,,,,,,,,,,,,,,,,,,,0.95,,,,LearningTask,,,59.988729687,3,2015_May_27_1654,6,
-200,a,-200,,,,,,,,,,,,,,,,,0,0,0,0,7,3,31,3,2,0,2,0,None,,,,,,,,,,,,560.698831081,None,0,,0.51479101181,0.0015389919281,563.698068142,,,,,,,,,,,,,,,,,,,0.78,,,,LearningTask,,,59.988729687,3,2015_May_27_1654,6,
-200,a,-200,,,,,,,,,,,,,,,,,0,0,0,0,7,3,31,3,3,0,3,0,None,,,,,,,,,,,,563.699059963,None,0,,0.515111923218,0.00155901908875,566.698400021,,,,,,,,,,,,,,,,,,,1.16,,,,LearningTask,,,59.988729687,3,2015_May_27_1654,6,
-200,a,-200,,,,,,,,,,,,,,,,,0,0,0,0,7,3,31,3,4,0,4,0,None,,,,,,,,,,,,566.699412107,None,0,,0.514993190765,0.00179219245911,569.698983192,,,,,,,,,,,,,,,,,,,1.04,,,,LearningTask,,,59.988729687,3,2015_May_27_1654,6,
-200,a,-200,,,,,,,,,,,,,,,,,0,0,0,0,7,3,31,3,,,,,,,,,,,,,,,,,,,,,,,,,,,,,,,,,,,,,,,,,,,,,,LearningTask,,,59.988729687,3,2015_May_27_1654,6,
-200,q,200,,,,,,,,,,,,,,,,,0,0,0,0,8,0,32,1,0,0,0,0,None,,,,,,,,,,,,570.129676104,None,0,,0.502059221268,0.000935077667236,573.13282299,,,,,,,,,,,,,,,,,,,2.08,,,,LearningTask,,,59.988729687,3,2015_May_27_1654,6,
-200,q,200,,,,,,,,,,,,,,,,,0,0,0,0,8,0,32,1,1,0,1,0,None,,,,,,,,,,,,573.133804083,None,0,,0.514975070953,0.0017261505127,576.13324213,,,,,,,,,,,,,,,,,,,2.12,,,,LearningTask,,,59.988729687,3,2015_May_27_1654,6,
-200,q,200,,,,,,,,,,,,,,,,,0,0,0,0,8,0,32,1,2,0,2,0,None,,,,,,,,,,,,576.134237051,None,0,,0.515007972717,0.00174403190613,579.133535147,,,,,,,,,,,,,,,,,,,1.82,,,,LearningTask,,,59.988729687,3,2015_May_27_1654,6,
-200,q,200,,,,,,,,,,,,,,,,,0,0,0,0,8,0,32,1,3,0,3,0,None,,,,,,,,,,,,579.134533167,None,0,,0.51504778862,0.00151085853577,582.134155035,,,,,,,,,,,,,,,,,,,2.16,,,,LearningTask,,,59.988729687,3,2015_May_27_1654,6,
-200,q,200,,,,,,,,,,,,,,,,,0,0,0,0,8,0,32,1,4,0,4,0,None,,,,,,,,,,,,582.135143042,None,0,,0.514805078506,0.00172901153564,585.134521961,,,,,,,,,,,,,,,,,,,1.87,,,,LearningTask,,,59.988729687,3,2015_May_27_1654,6,
-200,q,200,,,,,,,,,,,,,,,,,0,0,0,0,8,0,32,1,,,,,,,,,,,,,,,,,,,,,,,,,,,,,,,,,,,,,,,,,,,,,,LearningTask,,,59.988729687,3,2015_May_27_1654,6,
-200,q,200,,,,,,,,,,,,,,,,,0,0,0,0,8,1,33,1,0,0,0,0,None,,,,,,,,,,,,585.512840986,None,0,,0.504592895508,0.000944852828979,588.501888037,,,,,,,,,,,,,,,,,,,0.56,,,,LearningTask,,,59.988729687,3,2015_May_27_1654,6,
-200,q,200,,,,,,,,,,,,,,,,,0,0,0,0,8,1,33,1,1,0,1,0,None,,,,,,,,,,,,588.502932072,None,0,,0.514721870422,0.00150299072266,591.502025127,,,,,,,,,,,,,,,,,,,0.46,,,,LearningTask,,,59.988729687,3,2015_May_27_1654,6,
-200,q,200,,,,,,,,,,,,,,,,,0,0,0,0,8,1,33,1,2,0,2,0,None,,,,,,,,,,,,591.502761126,None,0,,0.515469789505,0.00126600265503,594.50249815,,,,,,,,,,,,,,,,,,,0.58,,,,LearningTask,,,59.988729687,3,2015_May_27_1654,6,
-200,q,200,,,,,,,,,,,,,,,,,0,0,0,0,8,1,33,1,3,0,3,0,None,,,,,,,,,,,,594.503565073,None,0,,0.514764070511,0.00178503990173,597.502922058,,,,,,,,,,,,,,,,,,,0.41,,,,LearningTask,,,59.988729687,3,2015_May_27_1654,6,
-200,q,200,,,,,,,,,,,,,,,,,0,0,0,0,8,1,33,1,4,0,4,0,None,,,,,,,,,,,,597.503916979,None,0,,0.515090942383,0.00154304504395,600.503256083,,,,,,,,,,,,,,,,,,,0.25,,,,LearningTask,,,59.988729687,3,2015_May_27_1654,6,
-200,q,200,,,,,,,,,,,,,,,,,0,0,0,0,8,1,33,1,,,,,,,,,,,,,,,,,,,,,,,,,,,,,,,,,,,,,,,,,,,,,,LearningTask,,,59.988729687,3,2015_May_27_1654,6,
-200,a,-200,,,,,,,,,,,,,,,,,0,0,0,0,8,2,34,3,0,0,0,0,None,,,,,,,,,,,,600.878820181,None,0,,0.50741815567,0.00096607208252,603.870442152,,,,,,,,,,,,,,,,,,,0.6,,,,LearningTask,,,59.988729687,3,2015_May_27_1654,6,
-200,a,-200,,,,,,,,,,,,,,,,,0,0,0,0,8,2,34,3,1,0,1,0,None,,,,,,,,,,,,603.871435165,None,0,,0.515086889267,0.0017569065094,606.87097311,,,,,,,,,,,,,,,,,,,0.35,,,,LearningTask,,,59.988729687,3,2015_May_27_1654,6,
-200,a,-200,,,,,,,,,,,,,,,,,0,0,0,0,8,2,34,3,2,0,2,0,None,,,,,,,,,,,,606.871960163,None,0,,0.514944076538,0.00154805183411,609.871235132,,,,,,,,,,,,,,,,,,,0.63,,,,LearningTask,,,59.988729687,3,2015_May_27_1654,6,
-200,a,-200,,,,,,,,,,,,,,,,,0,0,0,0,8,2,34,3,3,0,3,0,None,,,,,,,,,,,,609.872224092,None,0,,0.515165090561,0.00147104263306,612.872006178,,,,,,,,,,,,,,,,,,,0.66,,,,LearningTask,,,59.988729687,3,2015_May_27_1654,6,
-200,a,-200,,,,,,,,,,,,,,,,,0,0,0,0,8,2,34,3,4,0,4,0,None,,,,,,,,,,,,612.873038054,None,0,,0.514785051346,0.00165200233459,615.871953964,,,,,,,,,,,,,,,,,,,0.67,,,,LearningTask,,,59.988729687,3,2015_May_27_1654,6,
-200,a,-200,,,,,,,,,,,,,,,,,0,0,0,0,8,2,34,3,,,,,,,,,,,,,,,,,,,,,,,,,,,,,,,,,,,,,,,,,,,,,,LearningTask,,,59.988729687,3,2015_May_27_1654,6,
200,s,-200,,,,,,,,,,,,,,,,,0,0,0,0,8,3,35,2,0,0,0,0,None,,,,,,,,,,,,616.260776997,None,0,,0.510927915573,0.00124597549438,619.256273031,,,,,,,,,,,,,,,,,,,1.23,,,,LearningTask,,,59.988729687,3,2015_May_27_1654,6,
200,s,-200,,,,,,,,,,,,,,,,,0,0,0,0,8,3,35,2,1,0,1,0,None,,,,,,,,,,,,619.257255077,None,0,,0.514814853668,0.00129795074463,622.256493092,,,,,,,,,,,,,,,,,,,1.24,,,,LearningTask,,,59.988729687,3,2015_May_27_1654,6,
200,s,-200,,,,,,,,,,,,,,,,,0,0,0,0,8,3,35,2,2,0,2,0,None,,,,,,,,,,,,622.257480145,None,0,,0.514928817749,0.00144982337952,625.257232189,,,,,,,,,,,,,,,,,,,1.18,,,,LearningTask,,,59.988729687,3,2015_May_27_1654,6,
200,s,-200,,,,,,,,,,,,,,,,,0,0,0,0,8,3,35,2,3,0,3,0,None,,,,,,,,,,,,625.258226156,None,0,,0.514914035797,0.00174117088318,628.257294178,,,,,,,,,,,,,,,,,,,1.16,,,,LearningTask,,,59.988729687,3,2015_May_27_1654,6,
200,s,-200,,,,,,,,,,,,,,,,,0,0,0,0,8,3,35,2,4,0,4,0,None,,,,,,,,,,,,628.258289099,None,0,,0.515144109726,0.0014591217041,631.257786989,,,,,,,,,,,,,,,,,,,1.09,,,,LearningTask,,,59.988729687,3,2015_May_27_1654,6,
200,s,-200,,,,,,,,,,,,,,,,,0,0,0,0,8,3,35,2,,,,,,,,,,,,,,,,,,,,,,,,,,,,,,,,,,,,,,,,,,,,,,LearningTask,,,59.988729687,3,2015_May_27_1654,6,
200,s,-200,,,,,,,,,,,,,,,,,0,0,0,0,9,0,36,2,0,0,0,0,None,,,,,,,,,,,,631.693252087,None,0,,0.514231920242,0.000900030136108,634.691504002,,,,,,,,,,,,,,,,,,,2.16,,,,LearningTask,,,59.988729687,3,2015_May_27_1654,6,
200,s,-200,,,,,,,,,,,,,,,,,0,0,0,0,9,0,36,2,1,0,1,0,None,,,,,,,,,,,,634.692227125,None,0,,0.515360116959,0.00112104415894,637.691821098,,,,,,,,,,,,,,,,,,,2.07,,,,LearningTask,,,59.988729687,3,2015_May_27_1654,6,
200,s,-200,,,,,,,,,,,,,,,,,0,0,0,0,9,0,36,2,2,0,2,0,None,,,,,,,,,,,,637.69287014,None,0,,0.515022039413,0.00170397758484,640.692319155,,,,,,,,,,,,,,,,,,,1.96,,,,LearningTask,,,59.988729687,3,2015_May_27_1654,6,
200,s,-200,,,,,,,,,,,,,,,,,0,0,0,0,9,0,36,2,3,0,3,0,None,,,,,,,,,,,,640.693382978,None,0,,0.515132904053,0.0016930103302,643.692820072,,,,,,,,,,,,,,,,,,,1.95,,,,LearningTask,,,59.988729687,3,2015_May_27_1654,6,
200,s,-200,,,,,,,,,,,,,,,,,0,0,0,0,9,0,36,2,4,0,4,0,None,,,,,,,,,,,,643.693807125,None,0,,0.514853954315,0.00149202346802,646.693219185,,,,,,,,,,,,,,,,,,,1.92,,,,LearningTask,,,59.988729687,3,2015_May_27_1654,6,
200,s,-200,,,,,,,,,,,,,,,,,0,0,0,0,9,0,36,2,,,,,,,,,,,,,,,,,,,,,,,,,,,,,,,,,,,,,,,,,,,,,,LearningTask,,,59.988729687,3,2015_May_27_1654,6,
200,s,-200,,,,,,,,,,,,,,,,,0,0,0,0,9,1,37,2,0,0,0,0,None,,,,,,,,,,,,647.10168004,None,0,,0.507879018784,0.000985145568848,650.093840122,,,,,,,,,,,,,,,,,,,0.43,,,,LearningTask,,,59.988729687,3,2015_May_27_1654,6,
200,s,-200,,,,,,,,,,,,,,,,,0,0,0,0,9,1,37,2,1,0,1,0,None,,,,,,,,,,,,650.094844103,None,0,,0.514824867249,0.00172805786133,653.094046116,,,,,,,,,,,,,,,,,,,0.63,,,,LearningTask,,,59.988729687,3,2015_May_27_1654,6,
200,s,-200,,,,,,,,,,,,,,,,,0,0,0,0,9,1,37,2,2,0,2,0,None,,,,,,,,,,,,653.095043182,None,0,,0.514975070953,0.00149297714233,656.094575167,,,,,,,,,,,,,,,,,,,0.4,,,,LearningTask,,,59.988729687,3,2015_May_27_1654,6,
200,s,-200,,,,,,,,,,,,,,,,,0,0,0,0,9,1,37,2,3,0,3,0,None,,,,,,,,,,,,656.095556974,None,0,,0.515012979507,0.00170397758484,659.094786167,,,,,,,,,,,,,,,,,,,0.6,,,,LearningTask,,,59.988729687,3,2015_May_27_1654,6,
200,s,-200,,,,,,,,,,,,,,,,,0,0,0,0,9,1,37,2,4,0,4,0,None,,,,,,,,,,,,659.095842123,None,0,,0.514956951141,0.0014750957489,662.095283031,,,,,,,,,,,,,,,,,,,0.31,,,,LearningTask,,,59.988729687,3,2015_May_27_1654,6,
200,s,-200,,,,,,,,,,,,,,,,,0,0,0,0,9,1,37,2,,,,,,,,,,,,,,,,,,,,,,,,,,,,,,,,,,,,,,,,,,,,,,LearningTask,,,59.988729687,3,2015_May_27_1654,6,
200,w,200,,,,,,,,,,,,,,,,,0,0,0,0,9,2,38,0,0,0,0,0,None,,,,,,,,,,,,662.517256975,None,0,,0.511128902435,0.00096583366394,665.512314081,,,,,,,,,,,,,,,,,,,0.73,,,,LearningTask,,,59.988729687,3,2015_May_27_1654,6,
200,w,200,,,,,,,,,,,,,,,,,0,0,0,0,9,2,38,0,1,0,1,0,None,,,,,,,,,,,,665.512922049,None,0,,0.515891075134,0.00119018554688,668.513313055,,,,,,,,,,,,,,,,,,,0.5,,,,LearningTask,,,59.988729687,3,2015_May_27_1654,6,
200,w,200,,,,,,,,,,,,,,,,,0,0,0,0,9,2,38,0,2,0,2,0,None,,,,,,,,,,,,668.514532089,None,0,,0.514518976212,0.00127410888672,671.513581991,,,,,,,,,,,,,,,,,,,0.35,,,,LearningTask,,,59.988729687,3,2015_May_27_1654,6,
200,w,200,,,,,,,,,,,,,,,,,0,0,0,0,9,2,38,0,3,0,3,0,None,,,,,,,,,,,,671.514564991,None,0,,0.514830827713,0.00173687934875,674.513728142,,,,,,,,,,,,,,,,,,,0.6,,,,LearningTask,,,59.988729687,3,2015_May_27_1654,6,
200,w,200,,,,,,,,,,,,,,,,,0,0,0,0,9,2,38,0,4,0,4,0,None,,,,,,,,,,,,674.514309168,None,0,,0.515691041946,0.00107383728027,677.514348984,,,,,,,,,,,,,,,,,,,0.66,,,,LearningTask,,,59.988729687,3,2015_May_27_1654,6,
200,w,200,,,,,,,,,,,,,,,,,0,0,0,0,9,2,38,0,,,,,,,,,,,,,,,,,,,,,,,,,,,,,,,,,,,,,,,,,,,,,,LearningTask,,,59.988729687,3,2015_May_27_1654,6,
-200,a,-200,,,,,,,,,,,,,,,,,0,0,0,0,9,3,39,3,0,0,0,0,None,,,,,,,,,,,,677.962074041,None,0,,0.50193810463,0.000899076461792,680.964765072,,,,,,,,,,,,,,,,,,,3.83,,,,LearningTask,,,59.988729687,3,2015_May_27_1654,6,
-200,a,-200,,,,,,,,,,,,,,,,,0,0,0,0,9,3,39,3,1,0,1,0,None,,,,,,,,,,,,680.965777159,None,0,,0.514877080917,0.00156617164612,683.965097189,,,,,,,,,,,,,,,,,,,4.05,,,,LearningTask,,,59.988729687,3,2015_May_27_1654,6,
-200,a,-200,,,,,,,,,,,,,,,,,0,0,0,0,9,3,39,3,2,0,2,0,None,,,,,,,,,,,,683.965882063,None,0,,0.515537023544,0.00124883651733,686.965562105,,,,,,,,,,,,,,,,,,,4.0,,,,LearningTask,,,59.988729687,3,2015_May_27_1654,6,
-200,a,-200,,,,,,,,,,,,,,,,,0,0,0,0,9,3,39,3,3,0,3,0,None,,,,,,,,,,,,686.966555119,None,0,,0.515002965927,0.00162696838379,689.965909004,,,,,,,,,,,,,,,,,,,4.23,,,,LearningTask,,,59.988729687,3,2015_May_27_1654,6,
-200,a,-200,,,,,,,,,,,,,,,,,0,0,0,0,9,3,39,3,4,0,4,0,None,,,,,,,,,,,,689.966904163,None,0,,0.515067815781,0.00155282020569,692.966415167,,,,,,,,,,,,,,,,,,,4.11,,,,LearningTask,,,59.988729687,3,2015_May_27_1654,6,
-200,a,-200,,,,,,,,,,,,,,,,,0,0,0,0,9,3,39,3,,,,,,,,,,,,,,,,,,,,,,,,,,,,,,,,,,,,,,,,,,,,,,LearningTask,,,59.988729687,3,2015_May_27_1654,6,
200,w,200,,,,,,,,,,,,,,,,,0,0,0,0,10,0,40,0,0,0,0,0,None,,,,,,,,,,,,693.388815165,None,0,,0.510723829269,0.000949859619141,696.383843184,,,,,,,,,,,,,,,,,,,4.06,,,,LearningTask,,,59.988729687,3,2015_May_27_1654,6,
200,w,200,,,,,,,,,,,,,,,,,0,0,0,0,10,0,40,0,1,0,1,0,None,,,,,,,,,,,,696.384840012,None,0,,0.514962911606,0.00173091888428,699.384144068,,,,,,,,,,,,,,,,,,,3.78,,,,LearningTask,,,59.988729687,3,2015_May_27_1654,6,
200,w,200,,,,,,,,,,,,,,,,,0,0,0,0,10,0,40,0,2,0,2,0,None,,,,,,,,,,,,699.385146141,None,0,,0.514868974686,0.0014750957489,702.384572983,,,,,,,,,,,,,,,,,,,3.92,,,,LearningTask,,,59.988729687,3,2015_May_27_1654,6,
200,w,200,,,,,,,,,,,,,,,,,0,0,0,0,10,0,40,0,3,0,3,0,None,,,,,,,,,,,,702.385601044,None,0,,0.514736890793,0.00178384780884,705.38499999,,,,,,,,,,,,,,,,,,,3.84,,,,LearningTask,,,59.988729687,3,2015_May_27_1654,6,
200,w,200,,,,,,,,,,,,,,,,,0,0,0,0,10,0,40,0,4,0,4,0,None,,,,,,,,,,,,705.386067152,None,0,,0.51482796669,0.00126600265503,708.385369062,,,,,,,,,,,,,,,,,,,3.91,,,,LearningTask,,,59.988729687,3,2015_May_27_1654,6,
200,w,200,,,,,,,,,,,,,,,,,0,0,0,0,10,0,40,0,,,,,,,,,,,,,,,,,,,,,,,,,,,,,,,,,,,,,,,,,,,,,,LearningTask,,,59.988729687,3,2015_May_27_1654,6,
-200,q,200,,,,,,,,,,,,,,,,,0,0,0,0,10,1,41,1,0,0,0,0,None,,,,,,,,,,,,708.807130098,None,0,,0.511152982712,0.000949144363403,711.802396059,,,,,,,,,,,,,,,,,,,2.14,,,,LearningTask,,,59.988729687,3,2015_May_27_1654,6,
-200,q,200,,,,,,,,,,,,,,,,,0,0,0,0,10,1,41,1,1,0,1,0,None,,,,,,,,,,,,711.803392172,None,0,,0.515216112137,0.00182509422302,714.803014994,,,,,,,,,,,,,,,,,,,2.01,,,,LearningTask,,,59.988729687,3,2015_May_27_1654,6,
-200,q,200,,,,,,,,,,,,,,,,,0,0,0,0,10,1,41,1,2,0,2,0,None,,,,,,,,,,,,714.804013968,None,0,,0.514950037003,0.00161218643188,717.803220987,,,,,,,,,,,,,,,,,,,1.94,,,,LearningTask,,,59.988729687,3,2015_May_27_1654,6,
-200,q,200,,,,,,,,,,,,,,,,,0,0,0,0,10,1,41,1,3,0,3,0,None,,,,,,,,,,,,717.804224014,None,0,,0.51509308815,0.00176405906677,720.80381918,,,,,,,,,,,,,,,,,,,1.78,,,,LearningTask,,,59.988729687,3,2015_May_27_1654,6,
-200,q,200,,,,,,,,,,,,,,,,,0,0,0,0,10,1,41,1,4,0,4,0,None,,,,,,,,,,,,720.804819107,None,0,,0.514855146408,0.00174999237061,723.804213047,,,,,,,,,,,,,,,,,,,2.22,,,,LearningTask,,,59.988729687,3,2015_May_27_1654,6,
-200,q,200,,,,,,,,,,,,,,,,,0,0,0,0,10,1,41,1,,,,,,,,,,,,,,,,,,,,,,,,,,,,,,,,,,,,,,,,,,,,,,LearningTask,,,59.988729687,3,2015_May_27_1654,6,
-200,q,200,,,,,,,,,,,,,,,,,0,0,0,0,10,2,42,1,0,0,0,0,None,,,,,,,,,,,,724.265799046,None,0,,0.504703044891,0.000963926315308,727.254517078,,,,,,,,,,,,,,,,,,,1.17,,,,LearningTask,,,59.988729687,3,2015_May_27_1654,6,
-200,q,200,,,,,,,,,,,,,,,,,0,0,0,0,10,2,42,1,1,0,1,0,None,,,,,,,,,,,,727.255213022,None,0,,0.515648126602,0.00119018554688,730.255069017,,,,,,,,,,,,,,,,,,,0.97,,,,LearningTask,,,59.988729687,3,2015_May_27_1654,6,
-200,q,200,,,,,,,,,,,,,,,,,0,0,0,0,10,2,42,1,2,0,2,0,None,,,,,,,,,,,,730.256072044,None,0,,0.515230178833,0.00150203704834,733.255376101,,,,,,,,,,,,,,,,,,,0.86,,,,LearningTask,,,59.988729687,3,2015_May_27_1654,6,
-200,q,200,,,,,,,,,,,,,,,,,0,0,0,0,10,2,42,1,3,0,3,0,None,,,,,,,,,,,,733.256376982,None,0,,0.515294075012,0.00154614448547,736.255736113,,,,,,,,,,,,,,,,,,,0.87,,,,LearningTask,,,59.988729687,3,2015_May_27_1654,6,
-200,q,200,,,,,,,,,,,,,,,,,0,0,0,0,10,2,42,1,4,0,4,0,None,,,,,,,,,,,,736.256740093,None,0,,0.515353918076,0.00170588493347,739.256332159,,,,,,,,,,,,,,,,,,,0.99,,,,LearningTask,,,59.988729687,3,2015_May_27_1654,6,
-200,q,200,,,,,,,,,,,,,,,,,0,0,0,0,10,2,42,1,,,,,,,,,,,,,,,,,,,,,,,,,,,,,,,,,,,,,,,,,,,,,,LearningTask,,,59.988729687,3,2015_May_27_1654,6,
200,s,-200,,,,,,,,,,,,,,,,,0,0,0,0,10,3,43,2,0,0,0,0,None,,,,,,,,,,,,739.695415974,None,0,,0.510673046112,0.00144195556641,742.690108061,,,,,,,,,,,,,,,,,,,0.56,,,,LearningTask,,,59.988729687,3,2015_May_27_1654,6,
200,s,-200,,,,,,,,,,,,,,,,,0,0,0,0,10,3,43,2,1,0,1,0,None,,,,,,,,,,,,742.691123962,None,0,,0.515168905258,0.00171780586243,745.690448046,,,,,,,,,,,,,,,,,,,0.25,,,,LearningTask,,,59.988729687,3,2015_May_27_1654,6,
200,s,-200,,,,,,,,,,,,,,,,,0,0,0,0,10,3,43,2,2,0,2,0,None,,,,,,,,,,,,745.691337109,None,0,,0.515542984009,0.00121402740479,748.691038132,,,,,,,,,,,,,,,,,,,0.71,,,,LearningTask,,,59.988729687,3,2015_May_27_1654,6,
200,s,-200,,,,,,,,,,,,,,,,,0,0,0,0,10,3,43,2,3,0,3,0,None,,,,,,,,,,,,748.692047119,None,0,,0.514844894409,0.0014328956604,751.691415071,,,,,,,,,,,,,,,,,,,0.44,,,,LearningTask,,,59.988729687,3,2015_May_27_1654,6,
200,s,-200,,,,,,,,,,,,,,,,,0,0,0,0,10,3,43,2,4,0,4,0,None,,,,,,,,,,,,751.692411184,None,0,,0.515162944794,0.0015549659729,754.692164183,,,,,,,,,,,,,,,,,,,0.57,,,,LearningTask,,,59.988729687,3,2015_May_27_1654,6,
200,s,-200,,,,,,,,,,,,,,,,,0,0,0,0,10,3,43,2,,,,,,,,,,,,,,,,,,,,,,,,,,,,,,,,,,,,,,,,,,,,,,LearningTask,,,59.988729687,3,2015_May_27_1654,6,
200,w,200,,,,,,,,,,,,,,,,,0,0,0,0,11,0,44,0,0,0,0,0,None,,,,,,,,,,,,755.143124104,None,0,,0.515285968781,0.000959157943726,758.142601967,,,,,,,,,,,,,,,,,,,0.62,,,,LearningTask,,,59.988729687,3,2015_May_27_1654,6,
200,w,200,,,,,,,,,,,,,,,,,0,0,0,0,11,0,44,0,1,0,1,0,None,,,,,,,,,,,,758.14359498,None,0,,0.514861106873,0.00176811218262,761.142700195,,,,,,,,,,,,,,,,,,,0.68,,,,LearningTask,,,59.988729687,3,2015_May_27_1654,6,
200,w,200,,,,,,,,,,,,,,,,,0,0,0,0,11,0,44,0,2,0,2,0,None,,,,,,,,,,,,761.14368701,None,0,,0.515185832977,0.00123286247253,764.143383026,,,,,,,,,,,,,,,,,,,0.28,,,,LearningTask,,,59.988729687,3,2015_May_27_1654,6,
200,w,200,,,,,,,,,,,,,,,,,0,0,0,0,11,0,44,0,3,0,3,0,None,,,,,,,,,,,,764.144376993,None,0,,0.515062093735,0.00174498558044,767.143541098,,,,,,,,,,,,,,,,,,,0.41,,,,LearningTask,,,59.988729687,3,2015_May_27_1654,6,
200,w,200,,,,,,,,,,,,,,,,,0,0,0,0,11,0,44,0,4,0,4,0,None,,,,,,,,,,,,767.144378185,None,0,,0.515455961227,0.00122594833374,770.144050121,,,,,,,,,,,,,,,,,,,0.25,,,,LearningTask,,,59.988729687,3,2015_May_27_1654,6,
200,w,200,,,,,,,,,,,,,,,,,0,0,0,0,11,0,44,0,,,,,,,,,,,,,,,,,,,,,,,,,,,,,,,,,,,,,,,,,,,,,,LearningTask,,,59.988729687,3,2015_May_27_1654,6,
200,s,-200,,,,,,,,,,,,,,,,,0,0,0,0,11,1,45,2,0,0,0,0,None,,,,,,,,,,,,770.633745193,None,0,,0.509749889374,0.000908851623535,773.628031015,,,,,,,,,,,,,,,,,,,0.7,,,,LearningTask,,,59.988729687,3,2015_May_27_1654,6,
200,s,-200,,,,,,,,,,,,,,,,,0,0,0,0,11,1,45,2,1,0,1,0,None,,,,,,,,,,,,773.629076004,None,0,,0.514811992645,0.00171303749084,776.628488064,,,,,,,,,,,,,,,,,,,0.29,,,,LearningTask,,,59.988729687,3,2015_May_27_1654,6,
200,s,-200,,,,,,,,,,,,,,,,,0,0,0,0,11,1,45,2,2,0,2,0,None,,,,,,,,,,,,776.629482985,None,0,,0.514940023422,0.00160789489746,779.628669977,,,,,,,,,,,,,,,,,,,0.27,,,,LearningTask,,,59.988729687,3,2015_May_27_1654,6,
200,s,-200,,,,,,,,,,,,,,,,,0,0,0,0,11,1,45,2,3,0,3,0,None,,,,,,,,,,,,779.629875183,None,0,,0.514973163605,0.00150299072266,782.628863096,,,,,,,,,,,,,,,,,,,0.51,,,,LearningTask,,,59.988729687,3,2015_May_27_1654,6,
200,s,-200,,,,,,,,,,,,,,,,,0,0,0,0,11,1,45,2,4,0,4,0,None,,,,,,,,,,,,782.629587173,None,0,,0.515714883804,0.00123405456543,785.629489183,,,,,,,,,,,,,,,,,,,0.66,,,,LearningTask,,,59.988729687,3,2015_May_27_1654,6,
200,s,-200,,,,,,,,,,,,,,,,,0,0,0,0,11,1,45,2,,,,,,,,,,,,,,,,,,,,,,,,,,,,,,,,,,,,,,,,,,,,,,LearningTask,,,59.988729687,3,2015_May_27_1654,6,
200,w,200,,,,,,,,,,,,,,,,,0,0,0,0,11,2,46,0,0,0,0,0,None,,,,,,,,,,,,786.070109129,None,0,,0.509162187576,0.000921010971069,789.063515186,,,,,,,,,,,,,,,,,,,3.96,,,,LearningTask,,,59.988729687,3,2015_May_27_1654,6,
200,w,200,,,,,,,,,,,,,,,,,0,0,0,0,11,2,46,0,1,0,1,0,None,,,,,,,,,,,,789.064507961,None,0,,0.514832019806,0.00157499313354,792.06370306,,,,,,,,,,,,,,,,,,,3.8,,,,LearningTask,,,59.988729687,3,2015_May_27_1654,6,
200,w,200,,,,,,,,,,,,,,,,,0,0,0,0,11,2,46,0,2,0,2,0,None,,,,,,,,,,,,792.064408064,None,0,,0.515567064285,0.00126194953918,795.064201117,,,,,,,,,,,,,,,,,,,3.92,,,,LearningTask,,,59.988729687,3,2015_May_27_1654,6,
200,w,200,,,,,,,,,,,,,,,,,0,0,0,0,11,2,46,0,3,0,3,0,None,,,,,,,,,,,,795.065221071,None,0,,0.515060901642,0.00174999237061,798.064577103,,,,,,,,,,,,,,,,,,,4.2,,,,LearningTask,,,59.988729687,3,2015_May_27_1654,6,
200,w,200,,,,,,,,,,,,,,,,,0,0,0,0,11,2,46,0,4,0,4,0,None,,,,,,,,,,,,798.06528616,None,0,,0.515449047089,0.00124406814575,801.065244198,,,,,,,,,,,,,,,,,,,4.22,,,,LearningTask,,,59.988729687,3,2015_May_27_1654,6,
200,w,200,,,,,,,,,,,,,,,,,0,0,0,0,11,2,46,0,,,,,,,,,,,,,,,,,,,,,,,,,,,,,,,,,,,,,,,,,,,,,,LearningTask,,,59.988729687,3,2015_May_27_1654,6,
-200,q,200,,,,,,,,,,,,,,,,,0,0,0,0,11,3,47,1,0,0,0,0,None,,,,,,,,,,,,801.527053118,None,0,,0.504331827164,0.000931978225708,804.515825987,,,,,,,,,,,,,,,,,,,3.95,,,,LearningTask,,,59.988729687,3,2015_May_27_1654,6,
-200,q,200,,,,,,,,,,,,,,,,,0,0,0,0,11,3,47,1,1,0,1,0,None,,,,,,,,,,,,804.516501188,None,0,,0.515279054642,0.00114607810974,807.516012192,,,,,,,,,,,,,,,,,,,4.11,,,,LearningTask,,,59.988729687,3,2015_May_27_1654,6,
-200,q,200,,,,,,,,,,,,,,,,,0,0,0,0,11,3,47,1,2,0,2,0,None,,,,,,,,,,,,807.516644001,None,0,,0.515626192093,0.00102210044861,810.516640186,,,,,,,,,,,,,,,,,,,3.8,,,,LearningTask,,,59.988729687,3,2015_May_27_1654,6,
-200,q,200,,,,,,,,,,,,,,,,,0,0,0,0,11,3,47,1,3,0,3,0,None,,,,,,,,,,,,810.5174191,None,0,,0.515305995941,0.000997066497803,813.517172098,,,,,,,,,,,,,,,,,,,3.83,,,,LearningTask,,,59.988729687,3,2015_May_27_1654,6,
-200,q,200,,,,,,,,,,,,,,,,,0,0,0,0,11,3,47,1,4,0,4,0,None,,,,,,,,,,,,813.518194199,None,0,,0.514634132385,0.00167894363403,816.51755619,,,,,,,,,,,,,,,,,,,3.84,,,,LearningTask,,,59.988729687,3,2015_May_27_1654,6,
-200,q,200,,,,,,,,,,,,,,,,,0,0,0,0,11,3,47,1,,,,,,,,,,,,,,,,,,,,,,,,,,,,,,,,,,,,,,,,,,,,,,LearningTask,,,59.988729687,3,2015_May_27_1654,6,
-200,a,-200,,,,,,,,,,,,,,,,,0,0,0,0,12,0,48,3,0,0,0,0,None,,,,,,,,,,,,817.024067163,None,0,,0.509572029114,0.00143694877625,820.01773119,,,,,,,,,,,,,,,,,,,0.51,,,,LearningTask,,,59.988729687,3,2015_May_27_1654,6,
-200,a,-200,,,,,,,,,,,,,,,,,0,0,0,0,12,0,48,3,1,0,1,0,None,,,,,,,,,,,,820.018265963,None,0,,0.515945911407,0.00106000900269,823.018172026,,,,,,,,,,,,,,,,,,,0.41,,,,LearningTask,,,59.988729687,3,2015_May_27_1654,6,
-200,a,-200,,,,,,,,,,,,,,,,,0,0,0,0,12,0,48,3,2,0,2,0,None,,,,,,,,,,,,823.019217014,q,0,0.317749977112,0.514950990677,0.00271201133728,826.018342018,,,,,,,,,,,,,,,,,,,0.35,,,,LearningTask,,,59.988729687,3,2015_May_27_1654,6,
-200,a,-200,,,,,,,,,,,,,,,,,0,0,0,0,12,0,48,3,3,0,3,0,None,,,,,,,,,,,,826.019042015,None,0,,0.515654802322,0.00122094154358,829.019025087,,,,,,,,,,,,,,,,,,,0.5,,,,LearningTask,,,59.988729687,3,2015_May_27_1654,6,
-200,a,-200,,,,,,,,,,,,,,,,,0,0,0,0,12,0,48,3,4,0,4,0,None,,,,,,,,,,,,829.020019054,None,0,,0.515141010284,0.00174498558044,832.019330978,,,,,,,,,,,,,,,,,,,0.35,,,,LearningTask,,,59.988729687,3,2015_May_27_1654,6,
-200,a,-200,,,,,,,,,,,,,,,,,0,0,0,0,12,0,48,3,,,,,,,,,,,,,,,,,,,,,,,,,,,,,,,,,,,,,,,,,,,,,,LearningTask,,,59.988729687,3,2015_May_27_1654,6,
-200,q,200,,,,,,,,,,,,,,,,,0,0,0,0,12,1,49,1,0,0,0,0,None,,,,,,,,,,,,832.50919199,None,0,,0.509950876236,0.000916957855225,835.503204107,,,,,,,,,,,,,,,,,,,0.82,,,,LearningTask,,,59.988729687,3,2015_May_27_1654,6,
-200,q,200,,,,,,,,,,,,,,,,,0,0,0,0,12,1,49,1,1,0,1,0,None,,,,,,,,,,,,835.504194975,None,0,,0.515152931213,0.00159502029419,838.503758192,,,,,,,,,,,,,,,,,,,0.86,,,,LearningTask,,,59.988729687,3,2015_May_27_1654,6,
-200,q,200,,,,,,,,,,,,,,,,,0,0,0,0,12,1,49,1,2,0,2,0,None,,,,,,,,,,,,838.504605055,None,0,,0.515204191208,0.00127816200256,841.504410028,,,,,,,,,,,,,,,,,,,1.16,,,,LearningTask,,,59.988729687,3,2015_May_27_1654,6,
-200,q,200,,,,,,,,,,,,,,,,,0,0,0,0,12,1,49,1,3,0,3,0,None,,,,,,,,,,,,841.505395174,None,0,,0.514969110489,0.00143814086914,844.504769087,,,,,,,,,,,,,,,,,,,1.11,,,,LearningTask,,,59.988729687,3,2015_May_27_1654,6,
-200,q,200,,,,,,,,,,,,,,,,,0,0,0,0,12,1,49,1,4,0,4,0,None,,,,,,,,,,,,844.505648136,None,0,,0.514930009842,0.00136804580688,847.504885197,,,,,,,,,,,,,,,,,,,0.85,,,,LearningTask,,,59.988729687,3,2015_May_27_1654,6,
-200,q,200,,,,,,,,,,,,,,,,,0,0,0,0,12,1,49,1,,,,,,,,,,,,,,,,,,,,,,,,,,,,,,,,,,,,,,,,,,,,,,LearningTask,,,59.988729687,3,2015_May_27_1654,6,
200,s,-200,,,,,,,,,,,,,,,,,0,0,0,0,12,2,50,2,0,0,0,0,None,,,,,,,,,,,,847.984878063,None,0,,0.503227949142,0.000992059707642,850.988716125,,,,,,,,,,,,,,,,,,,0.57,,,,LearningTask,,,59.988729687,3,2015_May_27_1654,6,
200,s,-200,,,,,,,,,,,,,,,,,0,0,0,0,12,2,50,2,1,0,1,0,None,,,,,,,,,,,,850.989701033,None,0,,0.51525592804,0.00131392478943,853.989380121,,,,,,,,,,,,,,,,,,,0.72,,,,LearningTask,,,59.988729687,3,2015_May_27_1654,6,
200,s,-200,,,,,,,,,,,,,,,,,0,0,0,0,12,2,50,2,2,0,2,0,None,,,,,,,,,,,,853.990395069,None,0,,0.514909029007,0.00173807144165,856.989382982,,,,,,,,,,,,,,,,,,,0.47,,,,LearningTask,,,59.988729687,3,2015_May_27_1654,6,
200,s,-200,,,,,,,,,,,,,,,,,0,0,0,0,12,2,50,2,3,0,3,0,None,,,,,,,,,,,,856.990104198,None,0,,0.515724182129,0.00126719474792,859.990200996,,,,,,,,,,,,,,,,,,,0.35,,,,LearningTask,,,59.988729687,3,2015_May_27_1654,6,
200,s,-200,,,,,,,,,,,,,,,,,0,0,0,0,12,2,50,2,4,0,4,0,None,,,,,,,,,,,,859.991217136,None,0,,0.514975070953,0.00147604942322,862.990298033,,,,,,,,,,,,,,,,,,,0.61,,,,LearningTask,,,59.988729687,3,2015_May_27_1654,6,
200,s,-200,,,,,,,,,,,,,,,,,0,0,0,0,12,2,50,2,,,,,,,,,,,,,,,,,,,,,,,,,,,,,,,,,,,,,,,,,,,,,,LearningTask,,,59.988729687,3,2015_May_27_1654,6,
-200,a,-200,,,,,,,,,,,,,,,,,0,0,0,0,12,3,51,3,0,0,0,0,None,,,,,,,,,,,,863.524605989,None,0,,0.515683889389,0.000942945480347,866.524301052,,,,,,,,,,,,,,,,,,,4.1,,,,LearningTask,,,59.988729687,3,2015_May_27_1654,6,
-200,a,-200,,,,,,,,,,,,,,,,,0,0,0,0,12,3,51,3,1,0,1,0,None,,,,,,,,,,,,866.524998188,None,0,,0.51554608345,0.00124502182007,869.524999142,,,,,,,,,,,,,,,,,,,3.95,,,,LearningTask,,,59.988729687,3,2015_May_27_1654,6,
-200,a,-200,,,,,,,,,,,,,,,,,0,0,0,0,12,3,51,3,2,0,2,0,None,,,,,,,,,,,,869.525985003,None,0,,0.515072107315,0.00153398513794,872.525163174,,,,,,,,,,,,,,,,,,,4.05,,,,LearningTask,,,59.988729687,3,2015_May_27_1654,6,
-200,a,-200,,,,,,,,,,,,,,,,,0,0,0,0,12,3,51,3,3,0,3,0,None,,,,,,,,,,,,872.525851965,None,0,,0.515685081482,0.00122904777527,875.525722027,,,,,,,,,,,,,,,,,,,3.78,,,,LearningTask,,,59.988729687,3,2015_May_27_1654,6,
-200,a,-200,,,,,,,,,,,,,,,,,0,0,0,0,12,3,51,3,4,0,4,0,None,,,,,,,,,,,,875.526722193,None,0,,0.514961004257,0.00176501274109,878.526051998,,,,,,,,,,,,,,,,,,,4.04,,,,LearningTask,,,59.988729687,3,2015_May_27_1654,6,
-200,a,-200,,,,,,,,,,,,,,,,,0,0,0,0,12,3,51,3,,,,,,,,,,,,,,,,,,,,,,,,,,,,,,,,,,,,,,,,,,,,,,LearningTask,,,59.988729687,3,2015_May_27_1654,6,
200,s,-200,,,,,,,,,,,,,,,,,0,0,0,0,13,0,52,2,0,0,0,0,None,,,,,,,,,,,,879.025125027,None,0,,0.500575065613,0.000936985015869,882.026571989,,,,,,,,,,,,,,,,,,,1.78,,,,LearningTask,,,59.988729687,3,2015_May_27_1654,6,
200,s,-200,,,,,,,,,,,,,,,,,0,0,0,0,13,0,52,2,1,0,1,0,None,,,,,,,,,,,,882.027559996,None,0,,0.515101909637,0.00173211097717,885.026904106,,,,,,,,,,,,,,,,,,,1.81,,,,LearningTask,,,59.988729687,3,2015_May_27_1654,6,
200,s,-200,,,,,,,,,,,,,,,,,0,0,0,0,13,0,52,2,2,0,2,0,None,,,,,,,,,,,,885.027884007,None,0,,0.51507806778,0.00149893760681,888.027642965,,,,,,,,,,,,,,,,,,,1.95,,,,LearningTask,,,59.988729687,3,2015_May_27_1654,6,
200,s,-200,,,,,,,,,,,,,,,,,0,0,0,0,13,0,52,2,3,0,3,0,None,,,,,,,,,,,,888.028767109,None,0,,0.514614105225,0.00152397155762,891.028167009,,,,,,,,,,,,,,,,,,,1.97,,,,LearningTask,,,59.988729687,3,2015_May_27_1654,6,
200,s,-200,,,,,,,,,,,,,,,,,0,0,0,0,13,0,52,2,4,0,4,0,None,,,,,,,,,,,,891.029152155,None,0,,0.514755010605,0.00160908699036,894.028292179,,,,,,,,,,,,,,,,,,,2.05,,,,LearningTask,,,59.988729687,3,2015_May_27_1654,6,
200,s,-200,,,,,,,,,,,,,,,,,0,0,0,0,13,0,52,2,,,,,,,,,,,,,,,,,,,,,,,,,,,,,,,,,,,,,,,,,,,,,,LearningTask,,,59.988729687,3,2015_May_27_1654,6,
200,s,-200,,,,,,,,,,,,,,,,,0,0,0,0,13,1,53,2,0,0,0,0,None,,,,,,,,,,,,894.525876045,None,0,,0.502044916153,0.000939130783081,897.528697014,,,,,,,,,,,,,,,,,,,0.64,,,,LearningTask,,,59.988729687,3,2015_May_27_1654,6,
200,s,-200,,,,,,,,,,,,,,,,,0,0,0,0,13,1,53,2,1,0,1,0,None,,,,,,,,,,,,897.529390097,None,0,,0.515397071838,0.0011739730835,900.529044151,,,,,,,,,,,,,,,,,,,0.37,,,,LearningTask,,,59.988729687,3,2015_May_27_1654,6,
200,s,-200,,,,,,,,,,,,,,,,,0,0,0,0,13,1,53,2,2,0,2,0,None,,,,,,,,,,,,900.530037165,None,0,,0.515218019485,0.00124096870422,903.529756069,,,,,,,,,,,,,,,,,,,0.42,,,,LearningTask,,,59.988729687,3,2015_May_27_1654,6,
200,s,-200,,,,,,,,,,,,,,,,,0,0,0,0,13,1,53,2,3,0,3,0,None,,,,,,,,,,,,903.530747175,None,0,,0.514892101288,0.00153303146362,906.529940128,,,,,,,,,,,,,,,,,,,0.74,,,,LearningTask,,,59.988729687,3,2015_May_27_1654,6,
200,s,-200,,,,,,,,,,,,,,,,,0,0,0,0,13,1,53,2,4,0,4,0,None,,,,,,,,,,,,906.530640125,None,0,,0.515591859818,0.00125789642334,909.530725002,,,,,,,,,,,,,,,,,,,0.43,,,,LearningTask,,,59.988729687,3,2015_May_27_1654,6,
200,s,-200,,,,,,,,,,,,,,,,,0,0,0,0,13,1,53,2,,,,,,,,,,,,,,,,,,,,,,,,,,,,,,,,,,,,,,,,,,,,,,LearningTask,,,59.988729687,3,2015_May_27_1654,6,
-200,q,200,,,,,,,,,,,,,,,,,0,0,0,0,13,2,54,1,0,0,0,0,None,,,,,,,,,,,,910.074076176,None,0,,0.505922079086,0.00108098983765,913.064496994,,,,,,,,,,,,,,,,,,,3.88,,,,LearningTask,,,59.988729687,3,2015_May_27_1654,6,
-200,q,200,,,,,,,,,,,,,,,,,0,0,0,0,13,2,54,1,1,0,1,0,None,,,,,,,,,,,,913.065493107,None,0,,0.514830112457,0.00125098228455,916.064671993,,,,,,,,,,,,,,,,,,,4.06,,,,LearningTask,,,59.988729687,3,2015_May_27_1654,6,
-200,q,200,,,,,,,,,,,,,,,,,0,0,0,0,13,2,54,1,2,0,2,0,None,,,,,,,,,,,,916.065368176,None,0,,0.51553106308,0.00125408172607,919.065090179,,,,,,,,,,,,,,,,,,,4.09,,,,LearningTask,,,59.988729687,3,2015_May_27_1654,6,
-200,q,200,,,,,,,,,,,,,,,,,0,0,0,0,13,2,54,1,3,0,3,0,None,,,,,,,,,,,,919.066078186,None,0,,0.515206098557,0.00170993804932,922.065502167,,,,,,,,,,,,,,,,,,,4.08,,,,LearningTask,,,59.988729687,3,2015_May_27_1654,6,
-200,q,200,,,,,,,,,,,,,,,,,0,0,0,0,13,2,54,1,4,0,4,0,None,,,,,,,,,,,,922.06620717,None,0,,0.515444040298,0.00121212005615,925.065999985,,,,,,,,,,,,,,,,,,,3.76,,,,LearningTask,,,59.988729687,3,2015_May_27_1654,6,
-200,q,200,,,,,,,,,,,,,,,,,0,0,0,0,13,2,54,1,,,,,,,,,,,,,,,,,,,,,,,,,,,,,,,,,,,,,,,,,,,,,,LearningTask,,,59.988729687,3,2015_May_27_1654,6,
200,s,-200,,,,,,,,,,,,,,,,,0,0,0,0,13,3,55,2,0,0,0,0,None,,,,,,,,,,,,925.570034027,None,0,,0.512284994125,0.000919103622437,928.566465139,,,,,,,,,,,,,,,,,,,2.24,,,,LearningTask,,,59.988729687,3,2015_May_27_1654,6,
200,s,-200,,,,,,,,,,,,,,,,,0,0,0,0,13,3,55,2,1,0,1,0,None,,,,,,,,,,,,928.567459106,None,0,,0.515159130096,0.00156307220459,931.567017078,,,,,,,,,,,,,,,,,,,2.18,,,,LearningTask,,,59.988729687,3,2015_May_27_1654,6,
200,s,-200,,,,,,,,,,,,,,,,,0,0,0,0,13,3,55,2,2,0,2,0,None,,,,,,,,,,,,931.568013191,None,0,,0.514909982681,0.00174498558044,934.567384005,,,,,,,,,,,,,,,,,,,1.9,,,,LearningTask,,,59.988729687,3,2015_May_27_1654,6,
200,s,-200,,,,,,,,,,,,,,,,,0,0,0,0,13,3,55,2,3,0,3,0,None,,,,,,,,,,,,934.568379164,None,0,,0.514950990677,0.00160598754883,937.567887068,,,,,,,,,,,,,,,,,,,2.12,,,,LearningTask,,,59.988729687,3,2015_May_27_1654,6,
200,s,-200,,,,,,,,,,,,,,,,,0,0,0,0,13,3,55,2,4,0,4,0,None,,,,,,,,,,,,937.568886042,None,0,,0.514887094498,0.00154399871826,940.568128109,,,,,,,,,,,,,,,,,,,1.86,,,,LearningTask,,,59.988729687,3,2015_May_27_1654,6,
200,s,-200,,,,,,,,,,,,,,,,,0,0,0,0,13,3,55,2,,,,,,,,,,,,,,,,,,,,,,,,,,,,,,,,,,,,,,,,,,,,,,LearningTask,,,59.988729687,3,2015_May_27_1654,6,
-200,a,-200,,,,,,,,,,,,,,,,,0,0,0,0,14,0,56,3,0,0,0,0,None,,,,,,,,,,,,941.07746315,None,0,,0.507009029388,0.000908136367798,944.06862998,,,,,,,,,,,,,,,,,,,2.07,,,,LearningTask,,,59.988729687,3,2015_May_27_1654,6,
-200,a,-200,,,,,,,,,,,,,,,,,0,0,0,0,14,0,56,3,1,0,1,0,None,,,,,,,,,,,,944.069321156,None,0,,0.515462875366,0.00163292884827,947.069086075,,,,,,,,,,,,,,,,,,,1.78,,,,LearningTask,,,59.988729687,3,2015_May_27_1654,6,
-200,a,-200,,,,,,,,,,,,,,,,,0,0,0,0,14,0,56,3,2,0,2,0,None,,,,,,,,,,,,947.070075989,None,0,,0.514986038208,0.00162100791931,950.069396973,,,,,,,,,,,,,,,,,,,1.95,,,,LearningTask,,,59.988729687,3,2015_May_27_1654,6,
-200,a,-200,,,,,,,,,,,,,,,,,0,0,0,0,14,0,56,3,3,0,3,0,None,,,,,,,,,,,,950.069907188,None,0,,0.516028881073,0.00100493431091,953.07003212,,,,,,,,,,,,,,,,,,,1.75,,,,LearningTask,,,59.988729687,3,2015_May_27_1654,6,
-200,a,-200,,,,,,,,,,,,,,,,,0,0,0,0,14,0,56,3,4,0,4,0,None,,,,,,,,,,,,953.071040154,None,0,,0.515030145645,0.00164604187012,956.070440054,,,,,,,,,,,,,,,,,,,2.13,,,,LearningTask,,,59.988729687,3,2015_May_27_1654,6,
-200,a,-200,,,,,,,,,,,,,,,,,0,0,0,0,14,0,56,3,,,,,,,,,,,,,,,,,,,,,,,,,,,,,,,,,,,,,,,,,,,,,,LearningTask,,,59.988729687,3,2015_May_27_1654,6,
-200,a,-200,,,,,,,,,,,,,,,,,0,0,0,0,14,1,57,3,0,0,0,0,None,,,,,,,,,,,,956.639192104,None,0,,0.514174938202,0.000922918319702,959.637816191,,,,,,,,,,,,,,,,,,,1.82,,,,LearningTask,,,59.988729687,3,2015_May_27_1654,6,
-200,a,-200,,,,,,,,,,,,,,,,,0,0,0,0,14,1,57,3,1,0,1,0,None,,,,,,,,,,,,959.638821125,None,0,,0.514804840088,0.00174784660339,962.637930155,,,,,,,,,,,,,,,,,,,1.99,,,,LearningTask,,,59.988729687,3,2015_May_27_1654,6,
-200,a,-200,,,,,,,,,,,,,,,,,0,0,0,0,14,1,57,3,2,0,2,0,None,,,,,,,,,,,,962.638635159,None,0,,0.515654087067,0.00124406814575,965.638280153,,,,,,,,,,,,,,,,,,,1.75,,,,LearningTask,,,59.988729687,3,2015_May_27_1654,6,
-200,a,-200,,,,,,,,,,,,,,,,,0,0,0,0,14,1,57,3,3,0,3,0,None,,,,,,,,,,,,965.639314175,None,0,,0.514897823334,0.00161385536194,968.639075041,,,,,,,,,,,,,,,,,,,1.98,,,,LearningTask,,,59.988729687,3,2015_May_27_1654,6,
-200,a,-200,,,,,,,,,,,,,,,,,0,0,0,0,14,1,57,3,4,0,4,0,None,,,,,,,,,,,,968.640060186,None,0,,0.514765024185,0.00171399116516,971.639147043,,,,,,,,,,,,,,,,,,,2.24,,,,LearningTask,,,59.988729687,3,2015_May_27_1654,6,
-200,a,-200,,,,,,,,,,,,,,,,,0,0,0,0,14,1,57,3,,,,,,,,,,,,,,,,,,,,,,,,,,,,,,,,,,,,,,,,,,,,,,LearningTask,,,59.988729687,3,2015_May_27_1654,6,
-200,q,200,,,,,,,,,,,,,,,,,0,0,0,0,14,2,58,1,0,0,0,0,None,,,,,,,,,,,,972.169533014,None,0,,0.502629995346,0.00119209289551,975.173166037,,,,,,,,,,,,,,,,,,,0.85,,,,LearningTask,,,59.988729687,3,2015_May_27_1654,6,
-200,q,200,,,,,,,,,,,,,,,,,0,0,0,0,14,2,58,1,1,0,1,0,None,,,,,,,,,,,,975.173870087,None,0,,0.515325069427,0.00125002861023,978.173550129,,,,,,,,,,,,,,,,,,,0.9,,,,LearningTask,,,59.988729687,3,2015_May_27_1654,6,
-200,q,200,,,,,,,,,,,,,,,,,0,0,0,0,14,2,58,1,2,0,2,0,None,,,,,,,,,,,,978.174551964,None,0,,0.514956951141,0.0012469291687,981.174110174,,,,,,,,,,,,,,,,,,,0.88,,,,LearningTask,,,59.988729687,3,2015_May_27_1654,6,
-200,q,200,,,,,,,,,,,,,,,,,0,0,0,0,14,2,58,1,3,0,3,0,None,,,,,,,,,,,,981.175101042,None,0,,0.515029907227,0.00173592567444,984.174394131,,,,,,,,,,,,,,,,,,,0.97,,,,LearningTask,,,59.988729687,3,2015_May_27_1654,6,
-200,q,200,,,,,,,,,,,,,,,,,0,0,0,0,14,2,58,1,4,0,4,0,None,,,,,,,,,,,,984.175235033,None,0,,0.515403032303,0.00121998786926,987.175072193,,,,,,,,,,,,,,,,,,,0.91,,,,LearningTask,,,59.988729687,3,2015_May_27_1654,6,
-200,q,200,,,,,,,,,,,,,,,,,0,0,0,0,14,2,58,1,,,,,,,,,,,,,,,,,,,,,,,,,,,,,,,,,,,,,,,,,,,,,,LearningTask,,,59.988729687,3,2015_May_27_1654,6,
200,w,200,,,,,,,,,,,,,,,,,0,0,0,0,14,3,59,0,0,0,0,0,None,,,,,,,,,,,,987.710174084,None,0,,0.514430999756,0.000943899154663,990.708777189,,,,,,,,,,,,,,,,,,,0.94,,,,LearningTask,,,59.988729687,3,2015_May_27_1654,6,
200,w,200,,,,,,,,,,,,,,,,,0,0,0,0,14,3,59,0,1,0,1,0,None,,,,,,,,,,,,990.70977211,None,0,,0.514935016632,0.00175189971924,993.708956003,,,,,,,,,,,,,,,,,,,0.87,,,,LearningTask,,,59.988729687,3,2015_May_27_1654,6,
200,w,200,,,,,,,,,,,,,,,,,0,0,0,0,14,3,59,0,2,0,2,0,None,,,,,,,,,,,,993.709773064,None,0,,0.515587091446,0.00126314163208,996.709503174,,,,,,,,,,,,,,,,,,,1.01,,,,LearningTask,,,59.988729687,3,2015_May_27_1654,6,
200,w,200,,,,,,,,,,,,,,,,,0,0,0,0,14,3,59,0,3,0,3,0,None,,,,,,,,,,,,996.710198164,None,0,,0.515408992767,0.00122809410095,999.709902048,,,,,,,,,,,,,,,,,,,0.97,,,,LearningTask,,,59.988729687,3,2015_May_27_1654,6,
200,w,200,,,,,,,,,,,,,,,,,0,0,0,0,14,3,59,0,4,0,4,0,None,,,,,,,,,,,,999.710898161,None,0,,0.515050888062,0.00146198272705,1002.71055412,,,,,,,,,,,,,,,,,,,1.18,,,,LearningTask,,,59.988729687,3,2015_May_27_1654,6,
200,w,200,,,,,,,,,,,,,,,,,0,0,0,0,14,3,59,0,,,,,,,,,,,,,,,,,,,,,,,,,,,,,,,,,,,,,,,,,,,,,,LearningTask,,,59.988729687,3,2015_May_27_1654,6,
-200,a,-200,,,,,,,,,,,,,,,,,0,0,0,0,15,0,60,3,0,0,0,0,None,,,,,,,,,,,,1003.29267502,None,0,,0.500677108765,0.000893115997314,1006.29407811,,,,,,,,,,,,,,,,,,,1.01,,,,LearningTask,,,59.988729687,3,2015_May_27_1654,6,
-200,a,-200,,,,,,,,,,,,,,,,,0,0,0,0,15,0,60,3,1,0,1,0,None,,,,,,,,,,,,1006.29506707,None,0,,0.515363931656,0.001797914505,1009.29440117,,,,,,,,,,,,,,,,,,,0.98,,,,LearningTask,,,59.988729687,3,2015_May_27_1654,6,
-200,a,-200,,,,,,,,,,,,,,,,,0,0,0,0,15,0,60,3,2,0,2,0,None,,,,,,,,,,,,1009.29510117,None,0,,0.515625953674,0.00125408172607,1012.29496717,,,,,,,,,,,,,,,,,,,1.09,,,,LearningTask,,,59.988729687,3,2015_May_27_1654,6,
-200,a,-200,,,,,,,,,,,,,,,,,0,0,0,0,15,0,60,3,3,0,3,0,None,,,,,,,,,,,,1012.29566407,None,0,,0.515475988388,0.00124907493591,1015.29516506,,,,,,,,,,,,,,,,,,,0.75,,,,LearningTask,,,59.988729687,3,2015_May_27_1654,6,
-200,a,-200,,,,,,,,,,,,,,,,,0,0,0,0,15,0,60,3,4,0,4,0,None,,,,,,,,,,,,1015.29587197,None,0,,0.515769004822,0.00128388404846,1018.29590797,,,,,,,,,,,,,,,,,,,1.0,,,,LearningTask,,,59.988729687,3,2015_May_27_1654,6,
-200,a,-200,,,,,,,,,,,,,,,,,0,0,0,0,15,0,60,3,,,,,,,,,,,,,,,,,,,,,,,,,,,,,,,,,,,,,,,,,,,,,,LearningTask,,,59.988729687,3,2015_May_27_1654,6,
200,s,-200,,,,,,,,,,,,,,,,,0,0,0,0,15,1,61,2,0,0,0,0,None,,,,,,,,,,,,1018.85377717,None,0,,0.508527040482,0.000925064086914,1021.84648013,,,,,,,,,,,,,,,,,,,0.51,,,,LearningTask,,,59.988729687,3,2015_May_27_1654,6,
200,s,-200,,,,,,,,,,,,,,,,,0,0,0,0,15,1,61,2,1,0,1,0,None,,,,,,,,,,,,1021.84747005,None,0,,0.514905929565,0.00172591209412,1024.84667397,,,,,,,,,,,,,,,,,,,0.51,,,,LearningTask,,,59.988729687,3,2015_May_27_1654,6,
200,s,-200,,,,,,,,,,,,,,,,,0,0,0,0,15,1,61,2,2,0,2,0,None,,,,,,,,,,,,1024.84766817,None,0,,0.515155076981,0.0015549659729,1027.84714603,,,,,,,,,,,,,,,,,,,0.61,,,,LearningTask,,,59.988729687,3,2015_May_27_1654,6,
200,s,-200,,,,,,,,,,,,,,,,,0,0,0,0,15,1,61,2,3,0,3,0,None,,,,,,,,,,,,1027.84786415,None,0,,0.515572071075,0.00126695632935,1030.84758496,,,,,,,,,,,,,,,,,,,0.54,,,,LearningTask,,,59.988729687,3,2015_May_27_1654,6,
200,s,-200,,,,,,,,,,,,,,,,,0,0,0,0,15,1,61,2,4,0,4,0,None,,,,,,,,,,,,1030.84857512,None,0,,0.515286922455,0.00149083137512,1033.84840918,,,,,,,,,,,,,,,,,,,0.57,,,,LearningTask,,,59.988729687,3,2015_May_27_1654,6,
200,s,-200,,,,,,,,,,,,,,,,,0,0,0,0,15,1,61,2,,,,,,,,,,,,,,,,,,,,,,,,,,,,,,,,,,,,,,,,,,,,,,LearningTask,,,59.988729687,3,2015_May_27_1654,6,
-200,a,-200,,,,,,,,,,,,,,,,,0,0,0,0,15,2,62,3,0,0,0,0,None,,,,,,,,,,,,1034.38663006,None,0,,0.511147022247,0.000895023345947,1037.38189507,,,,,,,,,,,,,,,,,,,4.07,,,,LearningTask,,,59.988729687,3,2015_May_27_1654,6,
-200,a,-200,,,,,,,,,,,,,,,,,0,0,0,0,15,2,62,3,1,0,1,0,None,,,,,,,,,,,,1037.38289499,None,0,,0.515152931213,0.00152993202209,1040.38265109,,,,,,,,,,,,,,,,,,,4.25,,,,LearningTask,,,59.988729687,3,2015_May_27_1654,6,
-200,a,-200,,,,,,,,,,,,,,,,,0,0,0,0,15,2,62,3,2,0,2,0,None,,,,,,,,,,,,1040.383672,None,0,,0.514733076096,0.00152206420898,1043.38268518,,,,,,,,,,,,,,,,,,,4.06,,,,LearningTask,,,59.988729687,3,2015_May_27_1654,6,
-200,a,-200,,,,,,,,,,,,,,,,,0,0,0,0,15,2,62,3,3,0,3,0,None,,,,,,,,,,,,1043.38339019,None,0,,0.515431165695,0.00125813484192,1046.38318706,,,,,,,,,,,,,,,,,,,3.94,,,,LearningTask,,,59.988729687,3,2015_May_27_1654,6,
-200,a,-200,,,,,,,,,,,,,,,,,0,0,0,0,15,2,62,3,4,0,4,0,None,,,,,,,,,,,,1046.38418698,None,0,,0.514941930771,0.00153589248657,1049.38383698,,,,,,,,,,,,,,,,,,,3.96,,,,LearningTask,,,59.988729687,3,2015_May_27_1654,6,
-200,a,-200,,,,,,,,,,,,,,,,,0,0,0,0,15,2,62,3,,,,,,,,,,,,,,,,,,,,,,,,,,,,,,,,,,,,,,,,,,,,,,LearningTask,,,59.988729687,3,2015_May_27_1654,6,
200,w,200,,,,,,,,,,,,,,,,,0,0,0,0,15,3,63,0,0,0,0,0,None,,,,,,,,,,,,1049.99107409,None,0,,0.508849859238,0.00098180770874,1052.98412299,,,,,,,,,,,,,,,,,,,4.03,,,,LearningTask,,,59.988729687,3,2015_May_27_1654,6,
200,w,200,,,,,,,,,,,,,,,,,0,0,0,0,15,3,63,0,1,0,1,0,None,,,,,,,,,,,,1052.98491406,None,0,,0.515295028687,0.00121903419495,1055.98463416,,,,,,,,,,,,,,,,,,,3.75,,,,LearningTask,,,59.988729687,3,2015_May_27_1654,6,
200,w,200,,,,,,,,,,,,,,,,,0,0,0,0,15,3,63,0,2,0,2,0,None,,,,,,,,,,,,1055.98563504,None,0,,0.514969110489,0.00173115730286,1058.98488903,,,,,,,,,,,,,,,,,,,3.84,,,,LearningTask,,,59.988729687,3,2015_May_27_1654,6,
200,w,200,,,,,,,,,,,,,,,,,0,0,0,0,15,3,63,0,3,0,3,0,None,,,,,,,,,,,,1058.98559618,None,0,,0.515565156937,0.00125002861023,1061.98539996,,,,,,,,,,,,,,,,,,,3.88,,,,LearningTask,,,59.988729687,3,2015_May_27_1654,6,
200,w,200,,,,,,,,,,,,,,,,,0,0,0,0,15,3,63,0,4,0,4,0,None,,,,,,,,,,,,1061.98639297,None,0,,0.51495718956,0.00149703025818,1064.98586702,,,,,,,,,,,,,,,,,,,3.84,,,,LearningTask,,,59.988729687,3,2015_May_27_1654,6,
200,w,200,,,,,,,,,,,,,,,,,0,0,0,0,15,3,63,0,,,,,,,,,,,,,,,,,,,,,,,,,,,,,,,,,,,,,,,,,,,,,,LearningTask,,,59.988729687,3,2015_May_27_1654,6,
200,s,-200,,,,,,,,,,,,,,,,,0,0,0,0,16,0,64,2,0,0,0,0,None,,,,,,,,,,,,1065.54800916,None,0,,0.504199981689,0.000951051712036,1068.55306911,,,,,,,,,,,,,,,,,,,2.19,,,,LearningTask,,,59.988729687,3,2015_May_27_1654,6,
200,s,-200,,,,,,,,,,,,,,,,,0,0,0,0,16,0,64,2,1,0,1,0,None,,,,,,,,,,,,1068.55407,None,0,,0.514962911606,0.0017569065094,1071.55318213,,,,,,,,,,,,,,,,,,,2.13,,,,LearningTask,,,59.988729687,3,2015_May_27_1654,6,
200,s,-200,,,,,,,,,,,,,,,,,0,0,0,0,16,0,64,2,2,0,2,0,None,,,,,,,,,,,,1071.55382419,None,0,,0.515863895416,0.00105285644531,1074.55382419,,,,,,,,,,,,,,,,,,,1.81,,,,LearningTask,,,59.988729687,3,2015_May_27_1654,6,
200,s,-200,,,,,,,,,,,,,,,,,0,0,0,0,16,0,64,2,3,0,3,0,None,,,,,,,,,,,,1074.55483413,None,0,,0.515240907669,0.00144600868225,1077.55424213,,,,,,,,,,,,,,,,,,,2.06,,,,LearningTask,,,59.988729687,3,2015_May_27_1654,6,
200,s,-200,,,,,,,,,,,,,,,,,0,0,0,0,16,0,64,2,4,0,4,0,None,,,,,,,,,,,,1077.55523419,None,0,,0.514958143234,0.00174617767334,1080.55463219,,,,,,,,,,,,,,,,,,,2.03,,,,LearningTask,,,59.988729687,3,2015_May_27_1654,6,
200,s,-200,,,,,,,,,,,,,,,,,0,0,0,0,16,0,64,2,,,,,,,,,,,,,,,,,,,,,,,,,,,,,,,,,,,,,,,,,,,,,,LearningTask,,,59.988729687,3,2015_May_27_1654,6,
-200,q,200,,,,,,,,,,,,,,,,,0,0,0,0,16,1,65,1,0,0,0,0,None,,,,,,,,,,,,1081.17149806,None,0,,0.516303062439,0.000936031341553,1084.17182207,,,,,,,,,,,,,,,,,,,4.1,,,,LearningTask,,,59.988729687,3,2015_May_27_1654,6,
-200,q,200,,,,,,,,,,,,,,,,,0,0,0,0,16,1,65,1,1,0,1,0,None,,,,,,,,,,,,1084.17280602,None,0,,0.515012025833,0.00163412094116,1087.17228508,,,,,,,,,,,,,,,,,,,3.79,,,,LearningTask,,,59.988729687,3,2015_May_27_1654,6,
-200,q,200,,,,,,,,,,,,,,,,,0,0,0,0,16,1,65,1,2,0,2,0,None,,,,,,,,,,,,1087.17327309,None,0,,0.515063047409,0.00156402587891,1090.17267609,,,,,,,,,,,,,,,,,,,3.87,,,,LearningTask,,,59.988729687,3,2015_May_27_1654,6,
-200,q,200,,,,,,,,,,,,,,,,,0,0,0,0,16,1,65,1,3,0,3,0,None,,,,,,,,,,,,1090.17324805,None,0,,0.51574921608,0.00104308128357,1093.17304206,,,,,,,,,,,,,,,,,,,3.76,,,,LearningTask,,,59.988729687,3,2015_May_27_1654,6,
-200,q,200,,,,,,,,,,,,,,,,,0,0,0,0,16,1,65,1,4,0,4,0,None,,,,,,,,,,,,1093.17373919,None,0,,0.515753984451,0.00154614448547,1096.17386007,,,,,,,,,,,,,,,,,,,4.24,,,,LearningTask,,,59.988729687,3,2015_May_27_1654,6,
-200,q,200,,,,,,,,,,,,,,,,,0,0,0,0,16,1,65,1,,,,,,,,,,,,,,,,,,,,,,,,,,,,,,,,,,,,,,,,,,,,,,LearningTask,,,59.988729687,3,2015_May_27_1654,6,
-200,q,200,,,,,,,,,,,,,,,,,0,0,0,0,16,2,66,1,0,0,0,0,None,,,,,,,,,,,,1096.7333262,None,0,,0.50656414032,0.000891208648682,1099.72408199,,,,,,,,,,,,,,,,,,,3.85,,,,LearningTask,,,59.988729687,3,2015_May_27_1654,6,
-200,q,200,,,,,,,,,,,,,,,,,0,0,0,0,16,2,66,1,1,0,1,0,None,,,,,,,,,,,,1099.72509408,None,0,,0.515003919601,0.00151705741882,1102.72481298,,,,,,,,,,,,,,,,,,,3.78,,,,LearningTask,,,59.988729687,3,2015_May_27_1654,6,
-200,q,200,,,,,,,,,,,,,,,,,0,0,0,0,16,2,66,1,2,0,2,0,None,,,,,,,,,,,,1102.72582698,None,0,,0.514597177505,0.00148510932922,1105.72507119,,,,,,,,,,,,,,,,,,,3.91,,,,LearningTask,,,59.988729687,3,2015_May_27_1654,6,
-200,q,200,,,,,,,,,,,,,,,,,0,0,0,0,16,2,66,1,3,0,3,0,None,,,,,,,,,,,,1105.72607017,None,0,,0.515106916428,0.00153708457947,1108.72542214,,,,,,,,,,,,,,,,,,,3.77,,,,LearningTask,,,59.988729687,3,2015_May_27_1654,6,
-200,q,200,,,,,,,,,,,,,,,,,0,0,0,0,16,2,66,1,4,0,4,0,None,,,,,,,,,,,,1108.72642612,None,0,,0.51518201828,0.00133895874023,1111.72557998,,,,,,,,,,,,,,,,,,,4.22,,,,LearningTask,,,59.988729687,3,2015_May_27_1654,6,
-200,q,200,,,,,,,,,,,,,,,,,0,0,0,0,16,2,66,1,,,,,,,,,,,,,,,,,,,,,,,,,,,,,,,,,,,,,,,,,,,,,,LearningTask,,,59.988729687,3,2015_May_27_1654,6,
200,w,200,,,,,,,,,,,,,,,,,0,0,0,0,16,3,67,0,0,0,0,0,None,,,,,,,,,,,,1112.36064005,None,0,,0.514781951904,0.000917911529541,1115.35975409,,,,,,,,,,,,,,,,,,,3.97,,,,LearningTask,,,59.988729687,3,2015_May_27_1654,6,
200,w,200,,,,,,,,,,,,,,,,,0,0,0,0,16,3,67,0,1,0,1,0,None,,,,,,,,,,,,1115.36074018,None,0,,0.514920949936,0.00151395797729,1118.36019611,,,,,,,,,,,,,,,,,,,4.08,,,,LearningTask,,,59.988729687,3,2015_May_27_1654,6,
200,w,200,,,,,,,,,,,,,,,,,0,0,0,0,16,3,67,0,2,0,2,0,None,,,,,,,,,,,,1118.36119819,None,0,,0.514993190765,0.00153207778931,1121.36045599,,,,,,,,,,,,,,,,,,,4.12,,,,LearningTask,,,59.988729687,3,2015_May_27_1654,6,
200,w,200,,,,,,,,,,,,,,,,,0,0,0,0,16,3,67,0,3,0,3,0,None,,,,,,,,,,,,1121.36139703,None,0,,0.515389204025,0.00126600265503,1124.36081815,,,,,,,,,,,,,,,,,,,4.24,,,,LearningTask,,,59.988729687,3,2015_May_27_1654,6,
200,w,200,,,,,,,,,,,,,,,,,0,0,0,0,16,3,67,0,4,0,4,0,None,,,,,,,,,,,,1124.36152005,None,0,,0.515450000763,0.00125503540039,1127.36125803,,,,,,,,,,,,,,,,,,,3.97,,,,LearningTask,,,59.988729687,3,2015_May_27_1654,6,
200,w,200,,,,,,,,,,,,,,,,,0,0,0,0,16,3,67,0,,,,,,,,,,,,,,,,,,,,,,,,,,,,,,,,,,,,,,,,,,,,,,LearningTask,,,59.988729687,3,2015_May_27_1654,6,
-200,q,200,,,,,,,,,,,,,,,,,0,0,0,0,17,0,68,1,0,0,0,0,None,,,,,,,,,,,,1127.95840907,None,0,,0.502650976181,0.000962018966675,1130.96186018,,,,,,,,,,,,,,,,,,,4.12,,,,LearningTask,,,59.988729687,3,2015_May_27_1654,6,
-200,q,200,,,,,,,,,,,,,,,,,0,0,0,0,17,0,68,1,1,0,1,0,None,,,,,,,,,,,,1130.9628551,None,0,,0.514965057373,0.00122284889221,1133.96240902,,,,,,,,,,,,,,,,,,,3.89,,,,LearningTask,,,59.988729687,3,2015_May_27_1654,6,
-200,q,200,,,,,,,,,,,,,,,,,0,0,0,0,17,0,68,1,2,0,2,0,None,,,,,,,,,,,,1133.96339607,None,0,,0.515119075775,0.00173091888428,1136.96283102,,,,,,,,,,,,,,,,,,,3.93,,,,LearningTask,,,59.988729687,3,2015_May_27_1654,6,
-200,q,200,,,,,,,,,,,,,,,,,0,0,0,0,17,0,68,1,3,0,3,0,None,,,,,,,,,,,,1136.96384406,None,0,,0.514714956284,0.0016348361969,1139.9631722,,,,,,,,,,,,,,,,,,,4.03,,,,LearningTask,,,59.988729687,3,2015_May_27_1654,6,
-200,q,200,,,,,,,,,,,,,,,,,0,0,0,0,17,0,68,1,4,0,4,0,None,,,,,,,,,,,,1139.96417618,None,0,,0.51501083374,0.00174689292908,1142.96345115,,,,,,,,,,,,,,,,,,,4.17,,,,LearningTask,,,59.988729687,3,2015_May_27_1654,6,
-200,q,200,,,,,,,,,,,,,,,,,0,0,0,0,17,0,68,1,,,,,,,,,,,,,,,,,,,,,,,,,,,,,,,,,,,,,,,,,,,,,,LearningTask,,,59.988729687,3,2015_May_27_1654,6,
200,s,-200,,,,,,,,,,,,,,,,,0,0,0,0,17,1,69,2,0,0,0,0,None,,,,,,,,,,,,1143.56841111,None,0,,0.511525154114,0.000960111618042,1146.56414819,,,,,,,,,,,,,,,,,,,2.2,,,,LearningTask,,,59.988729687,3,2015_May_27_1654,6,
200,s,-200,,,,,,,,,,,,,,,,,0,0,0,0,17,1,69,2,1,0,1,0,None,,,,,,,,,,,,1146.56515813,None,0,,0.515052080154,0.00152802467346,1149.56449819,,,,,,,,,,,,,,,,,,,1.84,,,,LearningTask,,,59.988729687,3,2015_May_27_1654,6,
200,s,-200,,,,,,,,,,,,,,,,,0,0,0,0,17,1,69,2,2,0,2,0,None,,,,,,,,,,,,1149.56519818,None,0,,0.515630960464,0.00128507614136,1152.564641,,,,,,,,,,,,,,,,,,,1.99,,,,LearningTask,,,59.988729687,3,2015_May_27_1654,6,
200,s,-200,,,,,,,,,,,,,,,,,0,0,0,0,17,1,69,2,3,0,3,0,None,,,,,,,,,,,,1152.56563807,None,0,,0.515275001526,0.00150585174561,1155.56529212,,,,,,,,,,,,,,,,,,,2.15,,,,LearningTask,,,59.988729687,3,2015_May_27_1654,6,
200,s,-200,,,,,,,,,,,,,,,,,0,0,0,0,17,1,69,2,4,0,4,0,None,,,,,,,,,,,,1155.56628799,None,0,,0.514949083328,0.00150918960571,1158.56570101,,,,,,,,,,,,,,,,,,,1.98,,,,LearningTask,,,59.988729687,3,2015_May_27_1654,6,
200,s,-200,,,,,,,,,,,,,,,,,0,0,0,0,17,1,69,2,,,,,,,,,,,,,,,,,,,,,,,,,,,,,,,,,,,,,,,,,,,,,,LearningTask,,,59.988729687,3,2015_May_27_1654,6,
-200,q,200,,,,,,,,,,,,,,,,,0,0,0,0,17,2,70,1,0,0,0,0,None,,,,,,,,,,,,1159.27949214,None,0,,0.502294063568,0.00108814239502,1162.28302598,,,,,,,,,,,,,,,,,,,0.8,,,,LearningTask,,,59.988729687,3,2015_May_27_1654,6,
-200,q,200,,,,,,,,,,,,,,,,,0,0,0,0,17,2,70,1,1,0,1,0,None,,,,,,,,,,,,1162.28372216,None,0,,0.515192985535,0.000988006591797,1165.2830441,,,,,,,,,,,,,,,,,,,0.9,,,,LearningTask,,,59.988729687,3,2015_May_27_1654,6,
-200,q,200,,,,,,,,,,,,,,,,,0,0,0,0,17,2,70,1,2,0,2,0,None,,,,,,,,,,,,1165.28360915,None,0,,0.516018152237,0.000955104827881,1168.283566,,,,,,,,,,,,,,,,,,,1.11,,,,LearningTask,,,59.988729687,3,2015_May_27_1654,6,
-200,q,200,,,,,,,,,,,,,,,,,0,0,0,0,17,2,70,1,3,0,3,0,None,,,,,,,,,,,,1168.28408718,None,0,,0.515896081924,0.000896215438843,1171.28402901,,,,,,,,,,,,,,,,,,,0.83,,,,LearningTask,,,59.988729687,3,2015_May_27_1654,6,
-200,q,200,,,,,,,,,,,,,,,,,0,0,0,0,17,2,70,1,4,0,4,0,None,,,,,,,,,,,,1171.2846911,None,0,,0.515670061111,0.00116801261902,1174.2846241,,,,,,,,,,,,,,,,,,,1.14,,,,LearningTask,,,59.988729687,3,2015_May_27_1654,6,
-200,q,200,,,,,,,,,,,,,,,,,0,0,0,0,17,2,70,1,,,,,,,,,,,,,,,,,,,,,,,,,,,,,,,,,,,,,,,,,,,,,,LearningTask,,,59.988729687,3,2015_May_27_1654,6,
200,w,200,,,,,,,,,,,,,,,,,0,0,0,0,17,3,71,0,0,0,0,0,None,,,,,,,,,,,,1174.90683007,None,0,,0.510618925095,0.00134086608887,1177.90165114,,,,,,,,,,,,,,,,,,,1.81,,,,LearningTask,,,59.988729687,3,2015_May_27_1654,6,
200,w,200,,,,,,,,,,,,,,,,,0,0,0,0,17,3,71,0,1,0,1,0,None,,,,,,,,,,,,1177.90247416,None,0,,0.515355110168,0.00130796432495,1180.90208197,,,,,,,,,,,,,,,,,,,2.1,,,,LearningTask,,,59.988729687,3,2015_May_27_1654,6,
200,w,200,,,,,,,,,,,,,,,,,0,0,0,0,17,3,71,0,2,0,2,0,None,,,,,,,,,,,,1180.90312219,None,0,,0.515144109726,0.00162696838379,1183.90250802,,,,,,,,,,,,,,,,,,,1.84,,,,LearningTask,,,59.988729687,3,2015_May_27_1654,6,
200,w,200,,,,,,,,,,,,,,,,,0,0,0,0,17,3,71,0,3,0,3,0,None,,,,,,,,,,,,1183.90320301,q,0,0.601072072983,0.515539884567,0.00123190879822,1186.90292215,,,,,,,,,,,,,,,,,,,2.25,,,,LearningTask,,,59.988729687,3,2015_May_27_1654,6,
200,w,200,,,,,,,,,,,,,,,,,0,0,0,0,17,3,71,0,4,0,4,0,None,,,,,,,,,,,,1186.90393114,w,1,0.484030008316,0.515173912048,0.00160384178162,1189.90343499,,,,,,,,,,,,,,,,,,,2.14,,,,LearningTask,,,59.988729687,3,2015_May_27_1654,6,
200,w,200,,,,,,,,,,,,,,,,,0,0,0,0,17,3,71,0,,,,,,,,,,,,,,,,,,,,,,,,,,,,,,,,,,,,,,,,,,,,,,LearningTask,,,59.988729687,3,2015_May_27_1654,6,
-200,a,-200,,,,,,,,,,,,,,,,,0,0,0,0,18,0,72,3,0,0,0,0,None,,,,,,,,,,,,1190.55863118,a,1,0.550873994827,0.511192083359,0.00128102302551,1193.55416918,,,,,,,,,,,,,,,,,,,0.6,,,,LearningTask,,,59.988729687,3,2015_May_27_1654,6,
-200,a,-200,,,,,,,,,,,,,,,,,0,0,0,0,18,0,72,3,,,,,,,,,,,,,,,,,,,,,,,,,,,,,,,,,,,,,,,,,,,,,,LearningTask,,,59.988729687,3,2015_May_27_1654,6,
200,s,-200,,,,,,,,,,,,,,,,,0,0,0,0,18,1,73,2,0,0,0,0,None,,,,,,,,,,,,1194.19035196,a,0,0.750931978226,0.513401985168,0.000919103622437,1197.187778,,,,,,,,,,,,,,,,,,,0.89,,,,LearningTask,,,59.988729687,3,2015_May_27_1654,6,
200,s,-200,,,,,,,,,,,,,,,,,0,0,0,0,18,1,73,2,1,0,1,0,None,,,,,,,,,,,,1197.18877411,None,0,,0.51516699791,0.00156998634338,1200.1882031,,,,,,,,,,,,,,,,,,,1.16,,,,LearningTask,,,59.988729687,3,2015_May_27_1654,6,
200,s,-200,,,,,,,,,,,,,,,,,0,0,0,0,18,1,73,2,2,0,2,0,None,,,,,,,,,,,,1200.18940711,None,0,,0.514758110046,0.00163698196411,1203.188761,,,,,,,,,,,,,,,,,,,0.79,,,,LearningTask,,,59.988729687,3,2015_May_27_1654,6,
200,s,-200,,,,,,,,,,,,,,,,,0,0,0,0,18,1,73,2,3,0,3,0,None,,,,,,,,,,,,1203.18948317,None,0,,0.515240192413,0.00122117996216,1206.18899298,,,,,,,,,,,,,,,,,,,0.96,,,,LearningTask,,,59.988729687,3,2015_May_27_1654,6,
200,s,-200,,,,,,,,,,,,,,,,,0,0,0,0,18,1,73,2,4,0,4,0,None,,,,,,,,,,,,1206.19002008,None,0,,0.51518702507,0.00178813934326,1209.18962598,,,,,,,,,,,,,,,,,,,0.78,,,,LearningTask,,,59.988729687,3,2015_May_27_1654,6,
200,s,-200,,,,,,,,,,,,,,,,,0,0,0,0,18,1,73,2,,,,,,,,,,,,,,,,,,,,,,,,,,,,,,,,,,,,,,,,,,,,,,LearningTask,,,59.988729687,3,2015_May_27_1654,6,
-200,q,200,,,,,,,,,,,,,,,,,0,0,0,0,18,2,74,1,0,0,0,0,None,,,,,,,,,,,,1209.87607408,None,0,,0.513154983521,0.00153708457947,1212.87338114,,,,,,,,,,,,,,,,,,,4.07,,,,LearningTask,,,59.988729687,3,2015_May_27_1654,6,
-200,q,200,,,,,,,,,,,,,,,,,0,0,0,0,18,2,74,1,1,0,1,0,None,,,,,,,,,,,,1212.874084,None,0,,0.51566696167,0.00127387046814,1215.87390113,,,,,,,,,,,,,,,,,,,3.83,,,,LearningTask,,,59.988729687,3,2015_May_27_1654,6,
-200,q,200,,,,,,,,,,,,,,,,,0,0,0,0,18,2,74,1,2,0,2,0,None,,,,,,,,,,,,1215.87460303,None,0,,0.515424966812,0.0012538433075,1218.87429714,,,,,,,,,,,,,,,,,,,3.78,,,,LearningTask,,,59.988729687,3,2015_May_27_1654,6,
-200,q,200,,,,,,,,,,,,,,,,,0,0,0,0,18,2,74,1,3,0,3,0,None,,,,,,,,,,,,1218.87483096,None,0,,0.515694856644,0.00101590156555,1221.87446809,,,,,,,,,,,,,,,,,,,4.24,,,,LearningTask,,,59.988729687,3,2015_May_27_1654,6,
-200,q,200,,,,,,,,,,,,,,,,,0,0,0,0,18,2,74,1,4,0,4,0,None,,,,,,,,,,,,1221.87522006,None,0,,0.515435934067,0.00224685668945,1224.87495518,,,,,,,,,,,,,,,,,,,3.79,,,,LearningTask,,,59.988729687,3,2015_May_27_1654,6,
-200,q,200,,,,,,,,,,,,,,,,,0,0,0,0,18,2,74,1,,,,,,,,,,,,,,,,,,,,,,,,,,,,,,,,,,,,,,,,,,,,,,LearningTask,,,59.988729687,3,2015_May_27_1654,6,
-200,q,200,,,,,,,,,,,,,,,,,0,0,0,0,18,3,75,1,0,0,0,0,None,,,,,,,,,,,,1225.55513906,None,0,,0.502950906754,0.00142693519592,1228.55907202,,,,,,,,,,,,,,,,,,,4.11,,,,LearningTask,,,59.988729687,3,2015_May_27_1654,6,
-200,q,200,,,,,,,,,,,,,,,,,0,0,0,0,18,3,75,1,1,0,1,0,None,,,,,,,,,,,,1228.56013799,None,0,,0.51495885849,0.00181484222412,1231.559268,,,,,,,,,,,,,,,,,,,4.06,,,,LearningTask,,,59.988729687,3,2015_May_27_1654,6,
-200,q,200,,,,,,,,,,,,,,,,,0,0,0,0,18,3,75,1,2,0,2,0,None,,,,,,,,,,,,1231.56027007,None,0,,0.515345811844,0.00175189971924,1234.55986404,,,,,,,,,,,,,,,,,,,4.16,,,,LearningTask,,,59.988729687,3,2015_May_27_1654,6,
-200,q,200,,,,,,,,,,,,,,,,,0,0,0,0,18,3,75,1,3,0,3,0,None,,,,,,,,,,,,1234.56086612,None,0,,0.515022039413,0.00139713287354,1237.56030416,,,,,,,,,,,,,,,,,,,4.08,,,,LearningTask,,,59.988729687,3,2015_May_27_1654,6,
-200,q,200,,,,,,,,,,,,,,,,,0,0,0,0,18,3,75,1,4,0,4,0,None,,,,,,,,,,,,1237.56130719,None,0,,0.514924049377,0.00131702423096,1240.56068397,,,,,,,,,,,,,,,,,,,4.22,,,,LearningTask,,,59.988729687,3,2015_May_27_1654,6,
-200,q,200,,,,,,,,,,,,,,,,,0,0,0,0,18,3,75,1,,,,,,,,,,,,,,,,,,,,,,,,,,,,,,,,,,,,,,,,,,,,,,LearningTask,,,59.988729687,3,2015_May_27_1654,6,
-200,q,200,,,,,,,,,,,,,,,,,0,0,0,0,19,0,76,1,0,0,0,0,None,,,,,,,,,,,,1241.24875712,None,0,,0.511649131775,0.000946998596191,1244.24447608,,,,,,,,,,,,,,,,,,,4.03,,,,LearningTask,,,59.988729687,3,2015_May_27_1654,6,
-200,q,200,,,,,,,,,,,,,,,,,0,0,0,0,19,0,76,1,1,0,1,0,None,,,,,,,,,,,,1244.24551606,None,0,,0.515023946762,0.00183486938477,1247.24504209,,,,,,,,,,,,,,,,,,,4.1,,,,LearningTask,,,59.988729687,3,2015_May_27_1654,6,
-200,q,200,,,,,,,,,,,,,,,,,0,0,0,0,19,0,76,1,2,0,2,0,None,,,,,,,,,,,,1247.24605012,None,0,,0.514851808548,0.00124788284302,1250.24551916,,,,,,,,,,,,,,,,,,,3.78,,,,LearningTask,,,59.988729687,3,2015_May_27_1654,6,
-200,q,200,,,,,,,,,,,,,,,,,0,0,0,0,19,0,76,1,3,0,3,0,None,,,,,,,,,,,,1250.24654007,None,0,,0.514892101288,0.0014181137085,1253.24600911,,,,,,,,,,,,,,,,,,,4.22,,,,LearningTask,,,59.988729687,3,2015_May_27_1654,6,
-200,q,200,,,,,,,,,,,,,,,,,0,0,0,0,19,0,76,1,4,0,4,0,None,,,,,,,,,,,,1253.24701214,None,0,,0.514842033386,0.00174784660339,1256.2464242,,,,,,,,,,,,,,,,,,,3.78,,,,LearningTask,,,59.988729687,3,2015_May_27_1654,6,
-200,q,200,,,,,,,,,,,,,,,,,0,0,0,0,19,0,76,1,,,,,,,,,,,,,,,,,,,,,,,,,,,,,,,,,,,,,,,,,,,,,,LearningTask,,,59.988729687,3,2015_May_27_1654,6,
200,w,200,,,,,,,,,,,,,,,,,0,0,0,0,19,1,77,0,0,0,0,0,None,,,,,,,,,,,,1256.90075707,None,0,,0.511986017227,0.0012640953064,1259.89677715,,,,,,,,,,,,,,,,,,,1.85,,,,LearningTask,,,59.988729687,3,2015_May_27_1654,6,
200,w,200,,,,,,,,,,,,,,,,,0,0,0,0,19,1,77,0,1,0,1,0,None,,,,,,,,,,,,1259.89763713,None,0,,0.515428066254,0.0012149810791,1262.89707303,,,,,,,,,,,,,,,,,,,1.88,,,,LearningTask,,,59.988729687,3,2015_May_27_1654,6,
