Shape,Color,ShapeLoop.thisRepN,ShapeLoop.thisTrialN,ShapeLoop.thisN,ShapeLoop.thisIndex,ColorLoop.thisRepN,ColorLoop.thisTrialN,ColorLoop.thisN,ColorLoop.thisIndex,ok1.keys,ok1.rt,expName,gender (m/f),age,frameRate,session,date,participant,
invertedTriangle,gray,0,0,0,3,0,0,0,5,,,LearningTask,,,60.1644432969,3,2015_Mar_04_1158,798,
invertedTriangle,orange,0,0,0,3,0,1,1,2,,,LearningTask,,,60.1644432969,3,2015_Mar_04_1158,798,
invertedTriangle,yellow,0,0,0,3,0,2,2,0,,,LearningTask,,,60.1644432969,3,2015_Mar_04_1158,798,
invertedTriangle,blue,0,0,0,3,0,3,3,7,,,LearningTask,,,60.1644432969,3,2015_Mar_04_1158,798,
invertedTriangle,green,0,0,0,3,0,4,4,4,,,LearningTask,,,60.1644432969,3,2015_Mar_04_1158,798,
invertedTriangle,white,0,0,0,3,0,5,5,1,,,LearningTask,,,60.1644432969,3,2015_Mar_04_1158,798,
invertedTriangle,magenta,0,0,0,3,0,6,6,3,,,LearningTask,,,60.1644432969,3,2015_Mar_04_1158,798,
invertedTriangle,cyan,0,0,0,3,0,7,7,6,,,LearningTask,,,60.1644432969,3,2015_Mar_04_1158,798,
invertedTriangle,,0,0,0,3,,,,,,,LearningTask,,,60.1644432969,3,2015_Mar_04_1158,798,
square,cyan,0,1,1,1,0,0,0,6,,,LearningTask,,,60.1644432969,3,2015_Mar_04_1158,798,
square,yellow,0,1,1,1,0,1,1,0,,,LearningTask,,,60.1644432969,3,2015_Mar_04_1158,798,
square,blue,0,1,1,1,0,2,2,7,,,LearningTask,,,60.1644432969,3,2015_Mar_04_1158,798,
square,green,0,1,1,1,0,3,3,4,,,LearningTask,,,60.1644432969,3,2015_Mar_04_1158,798,
square,magenta,0,1,1,1,0,4,4,3,,,LearningTask,,,60.1644432969,3,2015_Mar_04_1158,798,
square,gray,0,1,1,1,0,5,5,5,,,LearningTask,,,60.1644432969,3,2015_Mar_04_1158,798,
square,orange,0,1,1,1,0,6,6,2,,,LearningTask,,,60.1644432969,3,2015_Mar_04_1158,798,
square,white,0,1,1,1,0,7,7,1,,,LearningTask,,,60.1644432969,3,2015_Mar_04_1158,798,
square,,0,1,1,1,,,,,,,LearningTask,,,60.1644432969,3,2015_Mar_04_1158,798,
hexagon,yellow,0,2,2,4,0,0,0,0,,,LearningTask,,,60.1644432969,3,2015_Mar_04_1158,798,
hexagon,blue,0,2,2,4,0,1,1,7,,,LearningTask,,,60.1644432969,3,2015_Mar_04_1158,798,
hexagon,orange,0,2,2,4,0,2,2,2,,,LearningTask,,,60.1644432969,3,2015_Mar_04_1158,798,
hexagon,gray,0,2,2,4,0,3,3,5,,,LearningTask,,,60.1644432969,3,2015_Mar_04_1158,798,
hexagon,white,0,2,2,4,0,4,4,1,,,LearningTask,,,60.1644432969,3,2015_Mar_04_1158,798,
hexagon,cyan,0,2,2,4,0,5,5,6,,,LearningTask,,,60.1644432969,3,2015_Mar_04_1158,798,
hexagon,green,0,2,2,4,0,6,6,4,,,LearningTask,,,60.1644432969,3,2015_Mar_04_1158,798,
hexagon,magenta,0,2,2,4,0,7,7,3,,,LearningTask,,,60.1644432969,3,2015_Mar_04_1158,798,
hexagon,,0,2,2,4,,,,,,,LearningTask,,,60.1644432969,3,2015_Mar_04_1158,798,
diamond,cyan,0,3,3,5,0,0,0,6,,,LearningTask,,,60.1644432969,3,2015_Mar_04_1158,798,
diamond,white,0,3,3,5,0,1,1,1,,,LearningTask,,,60.1644432969,3,2015_Mar_04_1158,798,
diamond,orange,0,3,3,5,0,2,2,2,,,LearningTask,,,60.1644432969,3,2015_Mar_04_1158,798,
diamond,yellow,0,3,3,5,0,3,3,0,,,LearningTask,,,60.1644432969,3,2015_Mar_04_1158,798,
diamond,magenta,0,3,3,5,0,4,4,3,,,LearningTask,,,60.1644432969,3,2015_Mar_04_1158,798,
diamond,gray,0,3,3,5,0,5,5,5,,,LearningTask,,,60.1644432969,3,2015_Mar_04_1158,798,
diamond,green,0,3,3,5,0,6,6,4,,,LearningTask,,,60.1644432969,3,2015_Mar_04_1158,798,
diamond,blue,0,3,3,5,0,7,7,7,,,LearningTask,,,60.1644432969,3,2015_Mar_04_1158,798,
diamond,,0,3,3,5,,,,,,,LearningTask,,,60.1644432969,3,2015_Mar_04_1158,798,
triangle,gray,0,4,4,0,0,0,0,5,,,LearningTask,,,60.1644432969,3,2015_Mar_04_1158,798,
triangle,orange,0,4,4,0,0,1,1,2,,,LearningTask,,,60.1644432969,3,2015_Mar_04_1158,798,
triangle,white,0,4,4,0,0,2,2,1,,,LearningTask,,,60.1644432969,3,2015_Mar_04_1158,798,
triangle,green,0,4,4,0,0,3,3,4,,,LearningTask,,,60.1644432969,3,2015_Mar_04_1158,798,
triangle,blue,0,4,4,0,0,4,4,7,,,LearningTask,,,60.1644432969,3,2015_Mar_04_1158,798,
triangle,magenta,0,4,4,0,0,5,5,3,,,LearningTask,,,60.1644432969,3,2015_Mar_04_1158,798,
triangle,cyan,0,4,4,0,0,6,6,6,,,LearningTask,,,60.1644432969,3,2015_Mar_04_1158,798,
triangle,yellow,0,4,4,0,0,7,7,0,,,LearningTask,,,60.1644432969,3,2015_Mar_04_1158,798,
triangle,,0,4,4,0,,,,,,,LearningTask,,,60.1644432969,3,2015_Mar_04_1158,798,
cross,white,0,5,5,6,0,0,0,1,,,LearningTask,,,60.1644432969,3,2015_Mar_04_1158,798,
cross,blue,0,5,5,6,0,1,1,7,,,LearningTask,,,60.1644432969,3,2015_Mar_04_1158,798,
cross,magenta,0,5,5,6,0,2,2,3,,,LearningTask,,,60.1644432969,3,2015_Mar_04_1158,798,
cross,orange,0,5,5,6,0,3,3,2,,,LearningTask,,,60.1644432969,3,2015_Mar_04_1158,798,
cross,green,0,5,5,6,0,4,4,4,,,LearningTask,,,60.1644432969,3,2015_Mar_04_1158,798,
cross,cyan,0,5,5,6,0,5,5,6,,,LearningTask,,,60.1644432969,3,2015_Mar_04_1158,798,
cross,yellow,0,5,5,6,0,6,6,0,,,LearningTask,,,60.1644432969,3,2015_Mar_04_1158,798,
cross,gray,0,5,5,6,0,7,7,5,,,LearningTask,,,60.1644432969,3,2015_Mar_04_1158,798,
cross,,0,5,5,6,,,,,,,LearningTask,,,60.1644432969,3,2015_Mar_04_1158,798,
line,yellow,0,6,6,2,0,0,0,0,,,LearningTask,,,60.1644432969,3,2015_Mar_04_1158,798,
line,gray,0,6,6,2,0,1,1,5,,,LearningTask,,,60.1644432969,3,2015_Mar_04_1158,798,
line,blue,0,6,6,2,0,2,2,7,,,LearningTask,,,60.1644432969,3,2015_Mar_04_1158,798,
line,white,0,6,6,2,0,3,3,1,,,LearningTask,,,60.1644432969,3,2015_Mar_04_1158,798,
line,orange,0,6,6,2,0,4,4,2,,,LearningTask,,,60.1644432969,3,2015_Mar_04_1158,798,
line,magenta,0,6,6,2,0,5,5,3,,,LearningTask,,,60.1644432969,3,2015_Mar_04_1158,798,
line,cyan,0,6,6,2,0,6,6,6,,,LearningTask,,,60.1644432969,3,2015_Mar_04_1158,798,
line,green,0,6,6,2,0,7,7,4,,,LearningTask,,,60.1644432969,3,2015_Mar_04_1158,798,
line,,0,6,6,2,,,,,,,LearningTask,,,60.1644432969,3,2015_Mar_04_1158,798,
circle,yellow,0,7,7,7,0,0,0,0,,,LearningTask,,,60.1644432969,3,2015_Mar_04_1158,798,
circle,cyan,0,7,7,7,0,1,1,6,,,LearningTask,,,60.1644432969,3,2015_Mar_04_1158,798,
circle,white,0,7,7,7,0,2,2,1,,,LearningTask,,,60.1644432969,3,2015_Mar_04_1158,798,
circle,gray,0,7,7,7,0,3,3,5,,,LearningTask,,,60.1644432969,3,2015_Mar_04_1158,798,
circle,orange,0,7,7,7,0,4,4,2,,,LearningTask,,,60.1644432969,3,2015_Mar_04_1158,798,
circle,magenta,0,7,7,7,0,5,5,3,,,LearningTask,,,60.1644432969,3,2015_Mar_04_1158,798,
circle,green,0,7,7,7,0,6,6,4,,,LearningTask,,,60.1644432969,3,2015_Mar_04_1158,798,
circle,blue,0,7,7,7,0,7,7,7,,,LearningTask,,,60.1644432969,3,2015_Mar_04_1158,798,
circle,,0,7,7,7,,,,,,,LearningTask,,,60.1644432969,3,2015_Mar_04_1158,798,
,,,,,,,,,,space,1.12846207619,LearningTask,,,60.1644432969,3,2015_Mar_04_1158,798,
