xPos,corrAns,yPos,corrGoResp,yPosGoStim,xPosGoStim,pracTrials.thisRepN,pracTrials.thisTrialN,pracTrials.thisN,pracTrials.thisIndex,ReDoLoopPrac.thisRepN,ReDoLoopPrac.thisTrialN,ReDoLoopPrac.thisN,ReDoLoopPrac.thisIndex,ReDoLoopPrac.thisTrial,pracStopTrials.thisRepN,pracStopTrials.thisTrialN,pracStopTrials.thisN,pracStopTrials.thisIndex,Blocks.thisRepN,Blocks.thisTrialN,Blocks.thisN,Blocks.thisIndex,trials.thisRepN,trials.thisTrialN,trials.thisN,trials.thisIndex,ReDoLoopMain.thisRepN,ReDoLoopMain.thisTrialN,ReDoLoopMain.thisN,ReDoLoopMain.thisIndex,ReDoLoopMain.thisTrial,StopBlocks.thisRepN,StopBlocks.thisTrialN,StopBlocks.thisN,StopBlocks.thisIndex,StopBlocks.thisTrial,StopTrials.thisRepN,StopTrials.thisTrialN,StopTrials.thisN,StopTrials.thisIndex,learningTrialList,learningPracTrialList,stopTrialList,stopPracTrialList,auctionTrialList,ok1.keys,ok1.rt,resp.keys,resp.corr,resp.rt,feedbackResp.keys,feedbackResp.corr,currentReward,firstPracComputedRewardOutput,firstPracLearningStimOnset,firstPracLearningFixOnset,firstPracPresentationRT,firstPracPresentationAcc,firstPracPresentationResp,firstPracEndTrialTimeStamp,StartTrialTimeStamp,trialType,goStim,stimType,stopStimValue,goResp.keys,goResp.corr,goResp.rt,key_resp_9.keys,key_resp_9.corr,fixStopOnset,goStimOnset,EndTrialTimeStamp,stopSignalOnset,key_resp_3.keys,key_resp_3.rt,firstComputedRewardOutput,firstLearningStimOnset,firstLearningFixOnset,firstPresentationRT,firstPresentationAcc,firstPresentationResp,firstEndTrialTimeStamp,secondComputedRewardOutput,secondLearningStimOnset,secondLearningFixOnset,secondPresentationRT,secondPresentationAcc,secondPresentationResp,secondEndTrialTimeStamp,feedbackResp.rt,thirdComputedRewardOutput,thirdLearningStimOnset,thirdLearningFixOnset,thirdPresentationRT,thirdPresentationAcc,thirdPresentationResp,thirdEndTrialTimeStamp,fourthComputedRewardOutput,fourthLearningStimOnset,fourthLearningFixOnset,fourthPresentationRT,fourthPresentationAcc,fourthPresentationResp,fourthEndTrialTimeStamp,fifthComputedRewardOutput,fifthLearningStimOnset,fifthLearningFixOnset,fifthPresentationRT,fifthPresentationAcc,fifthPresentationResp,fifthEndTrialTimeStamp,key_resp_7.keys,key_resp_7.rt,date,frameRate,expName,session,participant,
,,,,,,,,,,,,,,,,,,,,,,,,,,,,,,,,,,,,,,,,,[],[],"[{'stopOrGo': 'go', 'reward': 4.0, 'condition': 'go', 'fileName': 'hexagonyellow.gif'}, {'stopOrGo': 'go', 'reward': 0.5, 'condition': 'go', 'fileName': 'diamondmagenta.gif'}, {'stopOrGo': 'go', 'reward': 4.0, 'condition': 'go', 'fileName': 'hexagonyellow.gif'}, {'stopOrGo': 'stop', 'reward': 2.0, 'condition': 'stop', 'fileName': 'crossgray.gif'}, {'stopOrGo': 'go', 'reward': 1.0, 'condition': 'go', 'fileName': 'triangleblue.gif'}, {'stopOrGo': 'go', 'reward': 2.0, 'condition': 'go', 'fileName': 'invertedtrianglewhite.gif'}, {'stopOrGo': 'go', 'reward': 1.0, 'condition': 'stop', 'fileName': 'linegreen.gif'}, {'stopOrGo': 'go', 'reward': 1.0, 'condition': 'go', 'fileName': 'triangleblue.gif'}, {'stopOrGo': 'stop', 'reward': 2.0, 'condition': 'stop', 'fileName': 'crossgray.gif'}, {'stopOrGo': 'go', 'reward': 4.0, 'condition': 'go', 'fileName': 'hexagonyellow.gif'}, {'stopOrGo': 'go', 'reward': 0.5, 'condition': 'go', 'fileName': 'diamondmagenta.gif'}, {'stopOrGo': 'stop', 'reward': 1.0, 'condition': 'stop', 'fileName': 'linegreen.gif'}, {'stopOrGo': 'stop', 'reward': 0.5, 'condition': 'stop', 'fileName': 'squareorange.gif'}, {'stopOrGo': 'stop', 'reward': 1.0, 'condition': 'stop', 'fileName': 'linegreen.gif'}, {'stopOrGo': 'stop', 'reward': 0.5, 'condition': 'stop', 'fileName': 'squareorange.gif'}, {'stopOrGo': 'go', 'reward': 2.0, 'condition': 'go', 'fileName': 'invertedtrianglewhite.gif'}, {'stopOrGo': 'stop', 'reward': 1.0, 'condition': 'stop', 'fileName': 'linegreen.gif'}, {'stopOrGo': 'go', 'reward': 0.5, 'condition': 'go', 'fileName': 'diamondmagenta.gif'}, {'stopOrGo': 'go', 'reward': 0.5, 'condition': 'go', 'fileName': 'diamondmagenta.gif'}, {'stopOrGo': 'go', 'reward': 0.5, 'condition': 'go', 'fileName': 'diamondmagenta.gif'}, {'stopOrGo': 'go', 'reward': 2.0, 'condition': 'go', 'fileName': 'invertedtrianglewhite.gif'}, {'stopOrGo': 'go', 'reward': 2.0, 'condition': 'go', 'fileName': 'invertedtrianglewhite.gif'}, {'stopOrGo': 'go', 'reward': 0.5, 'condition': 'stop', 'fileName': 'squareorange.gif'}, {'stopOrGo': 'go', 'reward': 2.0, 'condition': 'go', 'fileName': 'invertedtrianglewhite.gif'}, {'stopOrGo': 'stop', 'reward': 2.0, 'condition': 'stop', 'fileName': 'crossgray.gif'}, {'stopOrGo': 'go', 'reward': 0.5, 'condition': 'go', 'fileName': 'diamondmagenta.gif'}, {'stopOrGo': 'stop', 'reward': 0.5, 'condition': 'stop', 'fileName': 'squareorange.gif'}, {'stopOrGo': 'go', 'reward': 0.5, 'condition': 'go', 'fileName': 'diamondmagenta.gif'}, {'stopOrGo': 'stop', 'reward': 1.0, 'condition': 'stop', 'fileName': 'linegreen.gif'}, {'stopOrGo': 'go', 'reward': 4.0, 'condition': 'stop', 'fileName': 'circlecyan.gif'}, {'stopOrGo': 'go', 'reward': 2.0, 'condition': 'stop', 'fileName': 'crossgray.gif'}, {'stopOrGo': 'go', 'reward': 0.5, 'condition': 'go', 'fileName': 'diamondmagenta.gif'}, {'stopOrGo': 'go', 'reward': 2.0, 'condition': 'go', 'fileName': 'invertedtrianglewhite.gif'}, {'stopOrGo': 'stop', 'reward': 1.0, 'condition': 'stop', 'fileName': 'linegreen.gif'}, {'stopOrGo': 'stop', 'reward': 2.0, 'condition': 'stop', 'fileName': 'crossgray.gif'}, {'stopOrGo': 'stop', 'reward': 2.0, 'condition': 'stop', 'fileName': 'crossgray.gif'}, {'stopOrGo': 'go', 'reward': 4.0, 'condition': 'go', 'fileName': 'hexagonyellow.gif'}, {'stopOrGo': 'go', 'reward': 2.0, 'condition': 'stop', 'fileName': 'crossgray.gif'}, {'stopOrGo': 'go', 'reward': 2.0, 'condition': 'go', 'fileName': 'invertedtrianglewhite.gif'}, {'stopOrGo': 'go', 'reward': 4.0, 'condition': 'stop', 'fileName': 'circlecyan.gif'}, {'stopOrGo': 'go', 'reward': 4.0, 'condition': 'go', 'fileName': 'hexagonyellow.gif'}, {'stopOrGo': 'go', 'reward': 1.0, 'condition': 'stop', 'fileName': 'linegreen.gif'}, {'stopOrGo': 'go', 'reward': 0.5, 'condition': 'go', 'fileName': 'diamondmagenta.gif'}, {'stopOrGo': 'go', 'reward': 0.5, 'condition': 'go', 'fileName': 'diamondmagenta.gif'}, {'stopOrGo': 'stop', 'reward': 0.5, 'condition': 'stop', 'fileName': 'squareorange.gif'}, {'stopOrGo': 'go', 'reward': 4.0, 'condition': 'stop', 'fileName': 'circlecyan.gif'}, {'stopOrGo': 'stop', 'reward': 4.0, 'condition': 'stop', 'fileName': 'circlecyan.gif'}, {'stopOrGo': 'go', 'reward': 0.5, 'condition': 'stop', 'fileName': 'squareorange.gif'}, {'stopOrGo': 'stop', 'reward': 4.0, 'condition': 'stop', 'fileName': 'circlecyan.gif'}, {'stopOrGo': 'go', 'reward': 2.0, 'condition': 'go', 'fileName': 'invertedtrianglewhite.gif'}, {'stopOrGo': 'go', 'reward': 0.5, 'condition': 'go', 'fileName': 'diamondmagenta.gif'}, {'stopOrGo': 'go', 'reward': 1.0, 'condition': 'go', 'fileName': 'triangleblue.gif'}, {'stopOrGo': 'stop', 'reward': 1.0, 'condition': 'stop', 'fileName': 'linegreen.gif'}, {'stopOrGo': 'stop', 'reward': 2.0, 'condition': 'stop', 'fileName': 'crossgray.gif'}, {'stopOrGo': 'go', 'reward': 4.0, 'condition': 'go', 'fileName': 'hexagonyellow.gif'}, {'stopOrGo': 'stop', 'reward': 1.0, 'condition': 'stop', 'fileName': 'linegreen.gif'}, {'stopOrGo': 'stop', 'reward': 1.0, 'condition': 'stop', 'fileName': 'linegreen.gif'}, {'stopOrGo': 'go', 'reward': 1.0, 'condition': 'go', 'fileName': 'triangleblue.gif'}, {'stopOrGo': 'go', 'reward': 4.0, 'condition': 'go', 'fileName': 'hexagonyellow.gif'}, {'stopOrGo': 'go', 'reward': 4.0, 'condition': 'go', 'fileName': 'hexagonyellow.gif'}, {'stopOrGo': 'go', 'reward': 1.0, 'condition': 'go', 'fileName': 'triangleblue.gif'}, {'stopOrGo': 'go', 'reward': 0.5, 'condition': 'stop', 'fileName': 'squareorange.gif'}, {'stopOrGo': 'stop', 'reward': 0.5, 'condition': 'stop', 'fileName': 'squareorange.gif'}, {'stopOrGo': 'stop', 'reward': 0.5, 'condition': 'stop', 'fileName': 'squareorange.gif'}, {'stopOrGo': 'stop', 'reward': 1.0, 'condition': 'stop', 'fileName': 'linegreen.gif'}, {'stopOrGo': 'stop', 'reward': 0.5, 'condition': 'stop', 'fileName': 'squareorange.gif'}, {'stopOrGo': 'go', 'reward': 2.0, 'condition': 'go', 'fileName': 'invertedtrianglewhite.gif'}, {'stopOrGo': 'go', 'reward': 4.0, 'condition': 'stop', 'fileName': 'circlecyan.gif'}, {'stopOrGo': 'stop', 'reward': 1.0, 'condition': 'stop', 'fileName': 'linegreen.gif'}, {'stopOrGo': 'stop', 'reward': 4.0, 'condition': 'stop', 'fileName': 'circlecyan.gif'}, {'stopOrGo': 'go', 'reward': 0.5, 'condition': 'go', 'fileName': 'diamondmagenta.gif'}, {'stopOrGo': 'stop', 'reward': 4.0, 'condition': 'stop', 'fileName': 'circlecyan.gif'}, {'stopOrGo': 'go', 'reward': 0.5, 'condition': 'go', 'fileName': 'diamondmagenta.gif'}, {'stopOrGo': 'stop', 'reward': 2.0, 'condition': 'stop', 'fileName': 'crossgray.gif'}, {'stopOrGo': 'go', 'reward': 4.0, 'condition': 'go', 'fileName': 'hexagonyellow.gif'}, {'stopOrGo': 'stop', 'reward': 2.0, 'condition': 'stop', 'fileName': 'crossgray.gif'}, {'stopOrGo': 'stop', 'reward': 1.0, 'condition': 'stop', 'fileName': 'linegreen.gif'}, {'stopOrGo': 'go', 'reward': 2.0, 'condition': 'go', 'fileName': 'invertedtrianglewhite.gif'}, {'stopOrGo': 'stop', 'reward': 4.0, 'condition': 'stop', 'fileName': 'circlecyan.gif'}, {'stopOrGo': 'go', 'reward': 0.5, 'condition': 'go', 'fileName': 'diamondmagenta.gif'}, {'stopOrGo': 'go', 'reward': 4.0, 'condition': 'go', 'fileName': 'hexagonyellow.gif'}, {'stopOrGo': 'go', 'reward': 0.5, 'condition': 'stop', 'fileName': 'squareorange.gif'}, {'stopOrGo': 'go', 'reward': 2.0, 'condition': 'go', 'fileName': 'invertedtrianglewhite.gif'}, {'stopOrGo': 'stop', 'reward': 0.5, 'condition': 'stop', 'fileName': 'squareorange.gif'}, {'stopOrGo': 'stop', 'reward': 2.0, 'condition': 'stop', 'fileName': 'crossgray.gif'}, {'stopOrGo': 'go', 'reward': 2.0, 'condition': 'go', 'fileName': 'invertedtrianglewhite.gif'}, {'stopOrGo': 'stop', 'reward': 2.0, 'condition': 'stop', 'fileName': 'crossgray.gif'}, {'stopOrGo': 'go', 'reward': 0.5, 'condition': 'go', 'fileName': 'diamondmagenta.gif'}, {'stopOrGo': 'stop', 'reward': 0.5, 'condition': 'stop', 'fileName': 'squareorange.gif'}, {'stopOrGo': 'go', 'reward': 2.0, 'condition': 'go', 'fileName': 'invertedtrianglewhite.gif'}, {'stopOrGo': 'go', 'reward': 1.0, 'condition': 'go', 'fileName': 'triangleblue.gif'}, {'stopOrGo': 'stop', 'reward': 4.0, 'condition': 'stop', 'fileName': 'circlecyan.gif'}, {'stopOrGo': 'go', 'reward': 0.5, 'condition': 'go', 'fileName': 'diamondmagenta.gif'}, {'stopOrGo': 'stop', 'reward': 0.5, 'condition': 'stop', 'fileName': 'squareorange.gif'}, {'stopOrGo': 'go', 'reward': 1.0, 'condition': 'go', 'fileName': 'triangleblue.gif'}, {'stopOrGo': 'go', 'reward': 1.0, 'condition': 'go', 'fileName': 'triangleblue.gif'}, {'stopOrGo': 'stop', 'reward': 1.0, 'condition': 'stop', 'fileName': 'linegreen.gif'}, {'stopOrGo': 'stop', 'reward': 0.5, 'condition': 'stop', 'fileName': 'squareorange.gif'}, {'stopOrGo': 'go', 'reward': 0.5, 'condition': 'go', 'fileName': 'diamondmagenta.gif'}, {'stopOrGo': 'stop', 'reward': 2.0, 'condition': 'stop', 'fileName': 'crossgray.gif'}, {'stopOrGo': 'go', 'reward': 1.0, 'condition': 'go', 'fileName': 'triangleblue.gif'}, {'stopOrGo': 'go', 'reward': 0.5, 'condition': 'go', 'fileName': 'diamondmagenta.gif'}, {'stopOrGo': 'stop', 'reward': 4.0, 'condition': 'stop', 'fileName': 'circlecyan.gif'}, {'stopOrGo': 'go', 'reward': 2.0, 'condition': 'go', 'fileName': 'invertedtrianglewhite.gif'}, {'stopOrGo': 'stop', 'reward': 1.0, 'condition': 'stop', 'fileName': 'linegreen.gif'}, {'stopOrGo': 'stop', 'reward': 1.0, 'condition': 'stop', 'fileName': 'linegreen.gif'}, {'stopOrGo': 'go', 'reward': 0.5, 'condition': 'stop', 'fileName': 'squareorange.gif'}, {'stopOrGo': 'go', 'reward': 2.0, 'condition': 'go', 'fileName': 'invertedtrianglewhite.gif'}, {'stopOrGo': 'stop', 'reward': 4.0, 'condition': 'stop', 'fileName': 'circlecyan.gif'}, {'stopOrGo': 'go', 'reward': 0.5, 'condition': 'go', 'fileName': 'diamondmagenta.gif'}, {'stopOrGo': 'go', 'reward': 4.0, 'condition': 'go', 'fileName': 'hexagonyellow.gif'}, {'stopOrGo': 'go', 'reward': 4.0, 'condition': 'go', 'fileName': 'hexagonyellow.gif'}, {'stopOrGo': 'go', 'reward': 4.0, 'condition': 'go', 'fileName': 'hexagonyellow.gif'}, {'stopOrGo': 'go', 'reward': 1.0, 'condition': 'go', 'fileName': 'triangleblue.gif'}, {'stopOrGo': 'go', 'reward': 1.0, 'condition': 'go', 'fileName': 'triangleblue.gif'}, {'stopOrGo': 'go', 'reward': 1.0, 'condition': 'go', 'fileName': 'triangleblue.gif'}, {'stopOrGo': 'go', 'reward': 2.0, 'condition': 'go', 'fileName': 'invertedtrianglewhite.gif'}, {'stopOrGo': 'stop', 'reward': 0.5, 'condition': 'stop', 'fileName': 'squareorange.gif'}, {'stopOrGo': 'stop', 'reward': 4.0, 'condition': 'stop', 'fileName': 'circlecyan.gif'}, {'stopOrGo': 'go', 'reward': 1.0, 'condition': 'go', 'fileName': 'triangleblue.gif'}, {'stopOrGo': 'go', 'reward': 0.5, 'condition': 'go', 'fileName': 'diamondmagenta.gif'}, {'stopOrGo': 'go', 'reward': 4.0, 'condition': 'stop', 'fileName': 'circlecyan.gif'}, {'stopOrGo': 'go', 'reward': 1.0, 'condition': 'go', 'fileName': 'triangleblue.gif'}, {'stopOrGo': 'go', 'reward': 1.0, 'condition': 'go', 'fileName': 'triangleblue.gif'}, {'stopOrGo': 'stop', 'reward': 4.0, 'condition': 'stop', 'fileName': 'circlecyan.gif'}, {'stopOrGo': 'go', 'reward': 0.5, 'condition': 'go', 'fileName': 'diamondmagenta.gif'}, {'stopOrGo': 'go', 'reward': 4.0, 'condition': 'go', 'fileName': 'hexagonyellow.gif'}, {'stopOrGo': 'go', 'reward': 4.0, 'condition': 'go', 'fileName': 'hexagonyellow.gif'}, {'stopOrGo': 'go', 'reward': 2.0, 'condition': 'stop', 'fileName': 'crossgray.gif'}, {'stopOrGo': 'go', 'reward': 1.0, 'condition': 'go', 'fileName': 'triangleblue.gif'}, {'stopOrGo': 'stop', 'reward': 0.5, 'condition': 'stop', 'fileName': 'squareorange.gif'}, {'stopOrGo': 'go', 'reward': 4.0, 'condition': 'go', 'fileName': 'hexagonyellow.gif'}, {'stopOrGo': 'go', 'reward': 2.0, 'condition': 'go', 'fileName': 'invertedtrianglewhite.gif'}, {'stopOrGo': 'go', 'reward': 4.0, 'condition': 'go', 'fileName': 'hexagonyellow.gif'}, {'stopOrGo': 'go', 'reward': 4.0, 'condition': 'go', 'fileName': 'hexagonyellow.gif'}, {'stopOrGo': 'stop', 'reward': 0.5, 'condition': 'stop', 'fileName': 'squareorange.gif'}, {'stopOrGo': 'go', 'reward': 1.0, 'condition': 'go', 'fileName': 'triangleblue.gif'}, {'stopOrGo': 'stop', 'reward': 4.0, 'condition': 'stop', 'fileName': 'circlecyan.gif'}, {'stopOrGo': 'go', 'reward': 0.5, 'condition': 'go', 'fileName': 'diamondmagenta.gif'}, {'stopOrGo': 'stop', 'reward': 4.0, 'condition': 'stop', 'fileName': 'circlecyan.gif'}, {'stopOrGo': 'go', 'reward': 0.5, 'condition': 'go', 'fileName': 'diamondmagenta.gif'}, {'stopOrGo': 'go', 'reward': 2.0, 'condition': 'go', 'fileName': 'invertedtrianglewhite.gif'}, {'stopOrGo': 'stop', 'reward': 4.0, 'condition': 'stop', 'fileName': 'circlecyan.gif'}, {'stopOrGo': 'stop', 'reward': 2.0, 'condition': 'stop', 'fileName': 'crossgray.gif'}, {'stopOrGo': 'go', 'reward': 4.0, 'condition': 'stop', 'fileName': 'circlecyan.gif'}, {'stopOrGo': 'go', 'reward': 2.0, 'condition': 'go', 'fileName': 'invertedtrianglewhite.gif'}, {'stopOrGo': 'stop', 'reward': 0.5, 'condition': 'stop', 'fileName': 'squareorange.gif'}, {'stopOrGo': 'stop', 'reward': 2.0, 'condition': 'stop', 'fileName': 'crossgray.gif'}, {'stopOrGo': 'go', 'reward': 2.0, 'condition': 'go', 'fileName': 'invertedtrianglewhite.gif'}, {'stopOrGo': 'stop', 'reward': 4.0, 'condition': 'stop', 'fileName': 'circlecyan.gif'}, {'stopOrGo': 'go', 'reward': 1.0, 'condition': 'stop', 'fileName': 'linegreen.gif'}, {'stopOrGo': 'go', 'reward': 1.0, 'condition': 'go', 'fileName': 'triangleblue.gif'}, {'stopOrGo': 'go', 'reward': 2.0, 'condition': 'go', 'fileName': 'invertedtrianglewhite.gif'}, {'stopOrGo': 'go', 'reward': 0.5, 'condition': 'stop', 'fileName': 'squareorange.gif'}, {'stopOrGo': 'go', 'reward': 4.0, 'condition': 'go', 'fileName': 'hexagonyellow.gif'}, {'stopOrGo': 'go', 'reward': 1.0, 'condition': 'go', 'fileName': 'triangleblue.gif'}, {'stopOrGo': 'go', 'reward': 1.0, 'condition': 'go', 'fileName': 'triangleblue.gif'}, {'stopOrGo': 'stop', 'reward': 4.0, 'condition': 'stop', 'fileName': 'circlecyan.gif'}, {'stopOrGo': 'go', 'reward': 1.0, 'condition': 'go', 'fileName': 'triangleblue.gif'}, {'stopOrGo': 'go', 'reward': 4.0, 'condition': 'go', 'fileName': 'hexagonyellow.gif'}, {'stopOrGo': 'stop', 'reward': 2.0, 'condition': 'stop', 'fileName': 'crossgray.gif'}, {'stopOrGo': 'go', 'reward': 4.0, 'condition': 'go', 'fileName': 'hexagonyellow.gif'}, {'stopOrGo': 'stop', 'reward': 2.0, 'condition': 'stop', 'fileName': 'crossgray.gif'}, {'stopOrGo': 'go', 'reward': 1.0, 'condition': 'go', 'fileName': 'triangleblue.gif'}, {'stopOrGo': 'stop', 'reward': 1.0, 'condition': 'stop', 'fileName': 'linegreen.gif'}, {'stopOrGo': 'go', 'reward': 2.0, 'condition': 'go', 'fileName': 'invertedtrianglewhite.gif'}, {'stopOrGo': 'stop', 'reward': 4.0, 'condition': 'stop', 'fileName': 'circlecyan.gif'}, {'stopOrGo': 'go', 'reward': 2.0, 'condition': 'go', 'fileName': 'invertedtrianglewhite.gif'}, {'stopOrGo': 'go', 'reward': 2.0, 'condition': 'go', 'fileName': 'invertedtrianglewhite.gif'}, {'stopOrGo': 'go', 'reward': 1.0, 'condition': 'stop', 'fileName': 'linegreen.gif'}, {'stopOrGo': 'go', 'reward': 1.0, 'condition': 'go', 'fileName': 'triangleblue.gif'}, {'stopOrGo': 'go', 'reward': 2.0, 'condition': 'go', 'fileName': 'invertedtrianglewhite.gif'}, {'stopOrGo': 'go', 'reward': 2.0, 'condition': 'go', 'fileName': 'invertedtrianglewhite.gif'}, {'stopOrGo': 'stop', 'reward': 1.0, 'condition': 'stop', 'fileName': 'linegreen.gif'}, {'stopOrGo': 'go', 'reward': 2.0, 'condition': 'go', 'fileName': 'invertedtrianglewhite.gif'}, {'stopOrGo': 'go', 'reward': 2.0, 'condition': 'stop', 'fileName': 'crossgray.gif'}, {'stopOrGo': 'go', 'reward': 0.5, 'condition': 'go', 'fileName': 'diamondmagenta.gif'}, {'stopOrGo': 'stop', 'reward': 4.0, 'condition': 'stop', 'fileName': 'circlecyan.gif'}, {'stopOrGo': 'stop', 'reward': 2.0, 'condition': 'stop', 'fileName': 'crossgray.gif'}, {'stopOrGo': 'go', 'reward': 1.0, 'condition': 'stop', 'fileName': 'linegreen.gif'}, {'stopOrGo': 'go', 'reward': 1.0, 'condition': 'stop', 'fileName': 'linegreen.gif'}, {'stopOrGo': 'stop', 'reward': 1.0, 'condition': 'stop', 'fileName': 'linegreen.gif'}, {'stopOrGo': 'go', 'reward': 1.0, 'condition': 'stop', 'fileName': 'linegreen.gif'}, {'stopOrGo': 'stop', 'reward': 2.0, 'condition': 'stop', 'fileName': 'crossgray.gif'}, {'stopOrGo': 'go', 'reward': 2.0, 'condition': 'go', 'fileName': 'invertedtrianglewhite.gif'}, {'stopOrGo': 'go', 'reward': 1.0, 'condition': 'stop', 'fileName': 'linegreen.gif'}, {'stopOrGo': 'stop', 'reward': 2.0, 'condition': 'stop', 'fileName': 'crossgray.gif'}, {'stopOrGo': 'go', 'reward': 0.5, 'condition': 'go', 'fileName': 'diamondmagenta.gif'}, {'stopOrGo': 'go', 'reward': 2.0, 'condition': 'go', 'fileName': 'invertedtrianglewhite.gif'}, {'stopOrGo': 'go', 'reward': 2.0, 'condition': 'stop', 'fileName': 'crossgray.gif'}, {'stopOrGo': 'go', 'reward': 0.5, 'condition': 'go', 'fileName': 'diamondmagenta.gif'}, {'stopOrGo': 'go', 'reward': 4.0, 'condition': 'go', 'fileName': 'hexagonyellow.gif'}, {'stopOrGo': 'go', 'reward': 4.0, 'condition': 'go', 'fileName': 'hexagonyellow.gif'}, {'stopOrGo': 'stop', 'reward': 2.0, 'condition': 'stop', 'fileName': 'crossgray.gif'}, {'stopOrGo': 'stop', 'reward': 1.0, 'condition': 'stop', 'fileName': 'linegreen.gif'}, {'stopOrGo': 'go', 'reward': 2.0, 'condition': 'go', 'fileName': 'invertedtrianglewhite.gif'}, {'stopOrGo': 'go', 'reward': 0.5, 'condition': 'go', 'fileName': 'diamondmagenta.gif'}, {'stopOrGo': 'stop', 'reward': 4.0, 'condition': 'stop', 'fileName': 'circlecyan.gif'}, {'stopOrGo': 'go', 'reward': 2.0, 'condition': 'go', 'fileName': 'invertedtrianglewhite.gif'}, {'stopOrGo': 'go', 'reward': 2.0, 'condition': 'go', 'fileName': 'invertedtrianglewhite.gif'}, {'stopOrGo': 'stop', 'reward': 2.0, 'condition': 'stop', 'fileName': 'crossgray.gif'}, {'stopOrGo': 'go', 'reward': 0.5, 'condition': 'go', 'fileName': 'diamondmagenta.gif'}, {'stopOrGo': 'go', 'reward': 0.5, 'condition': 'go', 'fileName': 'diamondmagenta.gif'}, {'stopOrGo': 'go', 'reward': 1.0, 'condition': 'go', 'fileName': 'triangleblue.gif'}, {'stopOrGo': 'go', 'reward': 4.0, 'condition': 'go', 'fileName': 'hexagonyellow.gif'}, {'stopOrGo': 'go', 'reward': 1.0, 'condition': 'go', 'fileName': 'triangleblue.gif'}, {'stopOrGo': 'go', 'reward': 1.0, 'condition': 'go', 'fileName': 'triangleblue.gif'}, {'stopOrGo': 'stop', 'reward': 4.0, 'condition': 'stop', 'fileName': 'circlecyan.gif'}, {'stopOrGo': 'go', 'reward': 0.5, 'condition': 'stop', 'fileName': 'squareorange.gif'}, {'stopOrGo': 'go', 'reward': 4.0, 'condition': 'go', 'fileName': 'hexagonyellow.gif'}, {'stopOrGo': 'stop', 'reward': 1.0, 'condition': 'stop', 'fileName': 'linegreen.gif'}, {'stopOrGo': 'stop', 'reward': 0.5, 'condition': 'stop', 'fileName': 'squareorange.gif'}, {'stopOrGo': 'stop', 'reward': 2.0, 'condition': 'stop', 'fileName': 'crossgray.gif'}, {'stopOrGo': 'go', 'reward': 4.0, 'condition': 'go', 'fileName': 'hexagonyellow.gif'}, {'stopOrGo': 'stop', 'reward': 1.0, 'condition': 'stop', 'fileName': 'linegreen.gif'}, {'stopOrGo': 'go', 'reward': 0.5, 'condition': 'go', 'fileName': 'diamondmagenta.gif'}, {'stopOrGo': 'stop', 'reward': 1.0, 'condition': 'stop', 'fileName': 'linegreen.gif'}, {'stopOrGo': 'stop', 'reward': 0.5, 'condition': 'stop', 'fileName': 'squareorange.gif'}, {'stopOrGo': 'go', 'reward': 4.0, 'condition': 'go', 'fileName': 'hexagonyellow.gif'}, {'stopOrGo': 'go', 'reward': 2.0, 'condition': 'stop', 'fileName': 'crossgray.gif'}, {'stopOrGo': 'stop', 'reward': 0.5, 'condition': 'stop', 'fileName': 'squareorange.gif'}, {'stopOrGo': 'go', 'reward': 0.5, 'condition': 'go', 'fileName': 'diamondmagenta.gif'}, {'stopOrGo': 'stop', 'reward': 0.5, 'condition': 'stop', 'fileName': 'squareorange.gif'}, {'stopOrGo': 'stop', 'reward': 4.0, 'condition': 'stop', 'fileName': 'circlecyan.gif'}, {'stopOrGo': 'go', 'reward': 1.0, 'condition': 'go', 'fileName': 'triangleblue.gif'}, {'stopOrGo': 'go', 'reward': 1.0, 'condition': 'go', 'fileName': 'triangleblue.gif'}, {'stopOrGo': 'stop', 'reward': 0.5, 'condition': 'stop', 'fileName': 'squareorange.gif'}, {'stopOrGo': 'stop', 'reward': 1.0, 'condition': 'stop', 'fileName': 'linegreen.gif'}, {'stopOrGo': 'stop', 'reward': 1.0, 'condition': 'stop', 'fileName': 'linegreen.gif'}, {'stopOrGo': 'go', 'reward': 2.0, 'condition': 'go', 'fileName': 'invertedtrianglewhite.gif'}, {'stopOrGo': 'go', 'reward': 2.0, 'condition': 'stop', 'fileName': 'crossgray.gif'}, {'stopOrGo': 'go', 'reward': 2.0, 'condition': 'go', 'fileName': 'invertedtrianglewhite.gif'}, {'stopOrGo': 'go', 'reward': 1.0, 'condition': 'go', 'fileName': 'triangleblue.gif'}, {'stopOrGo': 'go', 'reward': 2.0, 'condition': 'go', 'fileName': 'invertedtrianglewhite.gif'}, {'stopOrGo': 'go', 'reward': 4.0, 'condition': 'go', 'fileName': 'hexagonyellow.gif'}, {'stopOrGo': 'go', 'reward': 0.5, 'condition': 'go', 'fileName': 'diamondmagenta.gif'}, {'stopOrGo': 'stop', 'reward': 4.0, 'condition': 'stop', 'fileName': 'circlecyan.gif'}, {'stopOrGo': 'go', 'reward': 0.5, 'condition': 'go', 'fileName': 'diamondmagenta.gif'}, {'stopOrGo': 'stop', 'reward': 2.0, 'condition': 'stop', 'fileName': 'crossgray.gif'}, {'stopOrGo': 'go', 'reward': 4.0, 'condition': 'go', 'fileName': 'hexagonyellow.gif'}, {'stopOrGo': 'stop', 'reward': 2.0, 'condition': 'stop', 'fileName': 'crossgray.gif'}, {'stopOrGo': 'go', 'reward': 4.0, 'condition': 'go', 'fileName': 'hexagonyellow.gif'}, {'stopOrGo': 'stop', 'reward': 1.0, 'condition': 'stop', 'fileName': 'linegreen.gif'}, {'stopOrGo': 'stop', 'reward': 2.0, 'condition': 'stop', 'fileName': 'crossgray.gif'}, {'stopOrGo': 'go', 'reward': 4.0, 'condition': 'go', 'fileName': 'hexagonyellow.gif'}, {'stopOrGo': 'stop', 'reward': 0.5, 'condition': 'stop', 'fileName': 'squareorange.gif'}, {'stopOrGo': 'stop', 'reward': 0.5, 'condition': 'stop', 'fileName': 'squareorange.gif'}, {'stopOrGo': 'stop', 'reward': 4.0, 'condition': 'stop', 'fileName': 'circlecyan.gif'}, {'stopOrGo': 'stop', 'reward': 2.0, 'condition': 'stop', 'fileName': 'crossgray.gif'}, {'stopOrGo': 'go', 'reward': 1.0, 'condition': 'go', 'fileName': 'triangleblue.gif'}, {'stopOrGo': 'stop', 'reward': 0.5, 'condition': 'stop', 'fileName': 'squareorange.gif'}, {'stopOrGo': 'go', 'reward': 4.0, 'condition': 'go', 'fileName': 'hexagonyellow.gif'}, {'stopOrGo': 'go', 'reward': 4.0, 'condition': 'stop', 'fileName': 'circlecyan.gif'}, {'stopOrGo': 'go', 'reward': 4.0, 'condition': 'go', 'fileName': 'hexagonyellow.gif'}, {'stopOrGo': 'stop', 'reward': 4.0, 'condition': 'stop', 'fileName': 'circlecyan.gif'}, {'stopOrGo': 'stop', 'reward': 0.5, 'condition': 'stop', 'fileName': 'squareorange.gif'}, {'stopOrGo': 'go', 'reward': 0.5, 'condition': 'stop', 'fileName': 'squareorange.gif'}, {'stopOrGo': 'stop', 'reward': 0.5, 'condition': 'stop', 'fileName': 'squareorange.gif'}, {'stopOrGo': 'stop', 'reward': 2.0, 'condition': 'stop', 'fileName': 'crossgray.gif'}, {'stopOrGo': 'go', 'reward': 1.0, 'condition': 'go', 'fileName': 'triangleblue.gif'}, {'stopOrGo': 'go', 'reward': 0.5, 'condition': 'go', 'fileName': 'diamondmagenta.gif'}, {'stopOrGo': 'go', 'reward': 4.0, 'condition': 'stop', 'fileName': 'circlecyan.gif'}, {'stopOrGo': 'go', 'reward': 2.0, 'condition': 'stop', 'fileName': 'crossgray.gif'}, {'stopOrGo': 'go', 'reward': 1.0, 'condition': 'go', 'fileName': 'triangleblue.gif'}, {'stopOrGo': 'stop', 'reward': 1.0, 'condition': 'stop', 'fileName': 'linegreen.gif'}, {'stopOrGo': 'stop', 'reward': 1.0, 'condition': 'stop', 'fileName': 'linegreen.gif'}, {'stopOrGo': 'stop', 'reward': 4.0, 'condition': 'stop', 'fileName': 'circlecyan.gif'}, {'stopOrGo': 'stop', 'reward': 4.0, 'condition': 'stop', 'fileName': 'circlecyan.gif'}, {'stopOrGo': 'stop', 'reward': 2.0, 'condition': 'stop', 'fileName': 'crossgray.gif'}, {'stopOrGo': 'go', 'reward': 1.0, 'condition': 'go', 'fileName': 'triangleblue.gif'}, {'stopOrGo': 'stop', 'reward': 4.0, 'condition': 'stop', 'fileName': 'circlecyan.gif'}, {'stopOrGo': 'go', 'reward': 1.0, 'condition': 'go', 'fileName': 'triangleblue.gif'}, {'stopOrGo': 'go', 'reward': 4.0, 'condition': 'stop', 'fileName': 'circlecyan.gif'}, {'stopOrGo': 'stop', 'reward': 0.5, 'condition': 'stop', 'fileName': 'squareorange.gif'}, {'stopOrGo': 'go', 'reward': 4.0, 'condition': 'go', 'fileName': 'hexagonyellow.gif'}, {'stopOrGo': 'go', 'reward': 1.0, 'condition': 'go', 'fileName': 'triangleblue.gif'}, {'stopOrGo': 'go', 'reward': 1.0, 'condition': 'stop', 'fileName': 'linegreen.gif'}, {'stopOrGo': 'go', 'reward': 0.5, 'condition': 'go', 'fileName': 'diamondmagenta.gif'}, {'stopOrGo': 'go', 'reward': 4.0, 'condition': 'go', 'fileName': 'hexagonyellow.gif'}, {'stopOrGo': 'go', 'reward': 1.0, 'condition': 'go', 'fileName': 'triangleblue.gif'}, {'stopOrGo': 'stop', 'reward': 4.0, 'condition': 'stop', 'fileName': 'circlecyan.gif'}, {'stopOrGo': 'go', 'reward': 4.0, 'condition': 'go', 'fileName': 'hexagonyellow.gif'}, {'stopOrGo': 'go', 'reward': 2.0, 'condition': 'go', 'fileName': 'invertedtrianglewhite.gif'}, {'stopOrGo': 'go', 'reward': 0.5, 'condition': 'go', 'fileName': 'diamondmagenta.gif'}, {'stopOrGo': 'stop', 'reward': 0.5, 'condition': 'stop', 'fileName': 'squareorange.gif'}, {'stopOrGo': 'stop', 'reward': 1.0, 'condition': 'stop', 'fileName': 'linegreen.gif'}, {'stopOrGo': 'go', 'reward': 2.0, 'condition': 'stop', 'fileName': 'crossgray.gif'}]",[],"[{'stopOrGo': 'go', 'reward': 2.0, 'condition': 'go', 'auctionAmount': [204, 102, 136, 68, 170, 34], 'fileName': 'invertedtrianglewhite.gif'}, {'stopOrGo': 'go', 'reward': 1.0, 'condition': 'go', 'auctionAmount': [98, 294, 245, 147, 196, 49], 'fileName': 'triangleblue.gif'}, {'stopOrGo': 'go', 'reward': 0.5, 'condition': 'go', 'auctionAmount': [136, 34, 204, 102, 170, 68], 'fileName': 'diamondmagenta.gif'}, {'stopOrGo': 'stop', 'reward': 2.0, 'condition': 'stop', 'auctionAmount': [136, 68, 204, 102, 170, 34], 'fileName': 'crossgray.gif'}, {'stopOrGo': 'stop', 'reward': 2.0, 'condition': 'stop', 'auctionAmount': [88, 132, 44, 220, 264, 176], 'fileName': 'crossgray.gif'}, {'stopOrGo': 'go', 'reward': 0.5, 'condition': 'go', 'auctionAmount': [98, 294, 49, 245, 147, 196], 'fileName': 'diamondmagenta.gif'}, {'stopOrGo': 'stop', 'reward': 4.0, 'condition': 'stop', 'auctionAmount': [176, 44, 88, 264, 220, 132], 'fileName': 'circlecyan.gif'}, {'stopOrGo': 'stop', 'reward': 1.0, 'condition': 'stop', 'auctionAmount': [108, 162, 324, 54, 216, 270], 'fileName': 'linegreen.gif'}, {'stopOrGo': 'stop', 'reward': 2.0, 'condition': 'stop', 'auctionAmount': [98, 147, 294, 196, 245, 49], 'fileName': 'crossgray.gif'}, {'stopOrGo': 'stop', 'reward': 0.5, 'condition': 'stop', 'auctionAmount': [270, 108, 216, 54, 324, 162], 'fileName': 'squareorange.gif'}, {'stopOrGo': 'go', 'reward': 0.5, 'condition': 'go', 'auctionAmount': [39, 78, 234, 117, 195, 156], 'fileName': 'diamondmagenta.gif'}, {'stopOrGo': 'go', 'reward': 2.0, 'condition': 'go', 'auctionAmount': [68, 204, 102, 34, 170, 136], 'fileName': 'invertedtrianglewhite.gif'}, {'stopOrGo': 'go', 'reward': 0.5, 'condition': 'go', 'auctionAmount': [264, 176, 132, 88, 220, 44], 'fileName': 'diamondmagenta.gif'}, {'stopOrGo': 'stop', 'reward': 2.0, 'condition': 'stop', 'auctionAmount': [162, 270, 216, 108, 54, 324], 'fileName': 'crossgray.gif'}, {'stopOrGo': 'stop', 'reward': 2.0, 'condition': 'stop', 'auctionAmount': [162, 54, 324, 108, 216, 270], 'fileName': 'crossgray.gif'}, {'stopOrGo': 'go', 'reward': 1.0, 'condition': 'go', 'auctionAmount': [162, 216, 324, 54, 270, 108], 'fileName': 'triangleblue.gif'}, {'stopOrGo': 'stop', 'reward': 4.0, 'condition': 'stop', 'auctionAmount': [136, 68, 170, 204, 102, 34], 'fileName': 'circlecyan.gif'}, {'stopOrGo': 'stop', 'reward': 2.0, 'condition': 'stop', 'auctionAmount': [39, 117, 195, 234, 78, 156], 'fileName': 'crossgray.gif'}, {'stopOrGo': 'go', 'reward': 0.5, 'condition': 'go', 'auctionAmount': [156, 234, 39, 195, 117, 78], 'fileName': 'diamondmagenta.gif'}, {'stopOrGo': 'go', 'reward': 1.0, 'condition': 'go', 'auctionAmount': [88, 264, 176, 220, 44, 132], 'fileName': 'triangleblue.gif'}, {'stopOrGo': 'stop', 'reward': 1.0, 'condition': 'stop', 'auctionAmount': [220, 176, 44, 132, 264, 88], 'fileName': 'linegreen.gif'}, {'stopOrGo': 'stop', 'reward': 4.0, 'condition': 'stop', 'auctionAmount': [195, 234, 78, 39, 156, 117], 'fileName': 'circlecyan.gif'}, {'stopOrGo': 'stop', 'reward': 0.5, 'condition': 'stop', 'auctionAmount': [245, 196, 98, 49, 147, 294], 'fileName': 'squareorange.gif'}, {'stopOrGo': 'go', 'reward': 4.0, 'condition': 'go', 'auctionAmount': [156, 195, 39, 78, 234, 117], 'fileName': 'hexagonyellow.gif'}, {'stopOrGo': 'stop', 'reward': 4.0, 'condition': 'stop', 'auctionAmount': [39, 234, 117, 156, 195, 78], 'fileName': 'circlecyan.gif'}, {'stopOrGo': 'stop', 'reward': 4.0, 'condition': 'stop', 'auctionAmount': [147, 196, 49, 245, 98, 294], 'fileName': 'circlecyan.gif'}, {'stopOrGo': 'stop', 'reward': 1.0, 'condition': 'stop', 'auctionAmount': [117, 195, 156, 39, 234, 78], 'fileName': 'linegreen.gif'}, {'stopOrGo': 'stop', 'reward': 0.5, 'condition': 'stop', 'auctionAmount': [117, 156, 195, 234, 39, 78], 'fileName': 'squareorange.gif'}, {'stopOrGo': 'stop', 'reward': 4.0, 'condition': 'stop', 'auctionAmount': [270, 54, 216, 108, 162, 324], 'fileName': 'circlecyan.gif'}, {'stopOrGo': 'stop', 'reward': 0.5, 'condition': 'stop', 'auctionAmount': [132, 176, 88, 220, 44, 264], 'fileName': 'squareorange.gif'}, {'stopOrGo': 'stop', 'reward': 1.0, 'condition': 'stop', 'auctionAmount': [98, 294, 196, 245, 49, 147], 'fileName': 'linegreen.gif'}, {'stopOrGo': 'go', 'reward': 2.0, 'condition': 'go', 'auctionAmount': [234, 195, 117, 78, 156, 39], 'fileName': 'invertedtrianglewhite.gif'}, {'stopOrGo': 'go', 'reward': 0.5, 'condition': 'go', 'auctionAmount': [108, 270, 162, 324, 54, 216], 'fileName': 'diamondmagenta.gif'}, {'stopOrGo': 'go', 'reward': 2.0, 'condition': 'go', 'auctionAmount': [147, 98, 49, 245, 196, 294], 'fileName': 'invertedtrianglewhite.gif'}, {'stopOrGo': 'stop', 'reward': 1.0, 'condition': 'stop', 'auctionAmount': [216, 270, 54, 324, 162, 108], 'fileName': 'linegreen.gif'}, {'stopOrGo': 'go', 'reward': 4.0, 'condition': 'go', 'auctionAmount': [44, 220, 132, 88, 264, 176], 'fileName': 'hexagonyellow.gif'}, {'stopOrGo': 'go', 'reward': 2.0, 'condition': 'go', 'auctionAmount': [270, 216, 324, 108, 162, 54], 'fileName': 'invertedtrianglewhite.gif'}, {'stopOrGo': 'stop', 'reward': 4.0, 'condition': 'stop', 'auctionAmount': [204, 102, 34, 170, 136, 68], 'fileName': 'circlecyan.gif'}, {'stopOrGo': 'stop', 'reward': 0.5, 'condition': 'stop', 'auctionAmount': [204, 136, 68, 102, 34, 170], 'fileName': 'squareorange.gif'}, {'stopOrGo': 'go', 'reward': 2.0, 'condition': 'go', 'auctionAmount': [162, 324, 54, 108, 216, 270], 'fileName': 'invertedtrianglewhite.gif'}, {'stopOrGo': 'stop', 'reward': 2.0, 'condition': 'stop', 'auctionAmount': [78, 117, 234, 156, 195, 39], 'fileName': 'crossgray.gif'}, {'stopOrGo': 'stop', 'reward': 4.0, 'condition': 'stop', 'auctionAmount': [88, 132, 176, 264, 44, 220], 'fileName': 'circlecyan.gif'}, {'stopOrGo': 'stop', 'reward': 0.5, 'condition': 'stop', 'auctionAmount': [78, 117, 39, 156, 195, 234], 'fileName': 'squareorange.gif'}, {'stopOrGo': 'stop', 'reward': 2.0, 'condition': 'stop', 'auctionAmount': [136, 68, 34, 170, 204, 102], 'fileName': 'crossgray.gif'}, {'stopOrGo': 'go', 'reward': 0.5, 'condition': 'go', 'auctionAmount': [294, 196, 49, 98, 147, 245], 'fileName': 'diamondmagenta.gif'}, {'stopOrGo': 'go', 'reward': 0.5, 'condition': 'go', 'auctionAmount': [162, 270, 216, 54, 324, 108], 'fileName': 'diamondmagenta.gif'}, {'stopOrGo': 'go', 'reward': 1.0, 'condition': 'go', 'auctionAmount': [68, 102, 34, 136, 170, 204], 'fileName': 'triangleblue.gif'}, {'stopOrGo': 'stop', 'reward': 2.0, 'condition': 'stop', 'auctionAmount': [176, 132, 88, 264, 220, 44], 'fileName': 'crossgray.gif'}, {'stopOrGo': 'stop', 'reward': 0.5, 'condition': 'stop', 'auctionAmount': [324, 108, 54, 162, 270, 216], 'fileName': 'squareorange.gif'}, {'stopOrGo': 'go', 'reward': 2.0, 'condition': 'go', 'auctionAmount': [88, 220, 44, 176, 264, 132], 'fileName': 'invertedtrianglewhite.gif'}, {'stopOrGo': 'stop', 'reward': 1.0, 'condition': 'stop', 'auctionAmount': [245, 294, 98, 49, 147, 196], 'fileName': 'linegreen.gif'}, {'stopOrGo': 'go', 'reward': 1.0, 'condition': 'go', 'auctionAmount': [136, 204, 68, 170, 34, 102], 'fileName': 'triangleblue.gif'}, {'stopOrGo': 'go', 'reward': 0.5, 'condition': 'go', 'auctionAmount': [204, 136, 34, 68, 170, 102], 'fileName': 'diamondmagenta.gif'}, {'stopOrGo': 'stop', 'reward': 4.0, 'condition': 'stop', 'auctionAmount': [54, 324, 216, 108, 270, 162], 'fileName': 'circlecyan.gif'}, {'stopOrGo': 'go', 'reward': 1.0, 'condition': 'go', 'auctionAmount': [117, 195, 39, 234, 78, 156], 'fileName': 'triangleblue.gif'}, {'stopOrGo': 'go', 'reward': 4.0, 'condition': 'go', 'auctionAmount': [68, 34, 170, 136, 102, 204], 'fileName': 'hexagonyellow.gif'}, {'stopOrGo': 'stop', 'reward': 4.0, 'condition': 'stop', 'auctionAmount': [245, 294, 147, 196, 98, 49], 'fileName': 'circlecyan.gif'}, {'stopOrGo': 'go', 'reward': 1.0, 'condition': 'go', 'auctionAmount': [245, 294, 147, 49, 98, 196], 'fileName': 'triangleblue.gif'}, {'stopOrGo': 'go', 'reward': 0.5, 'condition': 'go', 'auctionAmount': [88, 176, 220, 44, 132, 264], 'fileName': 'diamondmagenta.gif'}, {'stopOrGo': 'stop', 'reward': 1.0, 'condition': 'stop', 'auctionAmount': [34, 102, 204, 136, 68, 170], 'fileName': 'linegreen.gif'}, {'stopOrGo': 'stop', 'reward': 2.0, 'condition': 'stop', 'auctionAmount': [98, 294, 245, 196, 49, 147], 'fileName': 'crossgray.gif'}, {'stopOrGo': 'go', 'reward': 1.0, 'condition': 'go', 'auctionAmount': [54, 162, 216, 324, 108, 270], 'fileName': 'triangleblue.gif'}, {'stopOrGo': 'go', 'reward': 2.0, 'condition': 'go', 'auctionAmount': [234, 195, 78, 39, 156, 117], 'fileName': 'invertedtrianglewhite.gif'}, {'stopOrGo': 'stop', 'reward': 0.5, 'condition': 'stop', 'auctionAmount': [264, 132, 220, 88, 44, 176], 'fileName': 'squareorange.gif'}, {'stopOrGo': 'stop', 'reward': 1.0, 'condition': 'stop', 'auctionAmount': [136, 102, 68, 170, 34, 204], 'fileName': 'linegreen.gif'}, {'stopOrGo': 'go', 'reward': 4.0, 'condition': 'go', 'auctionAmount': [39, 156, 195, 78, 117, 234], 'fileName': 'hexagonyellow.gif'}, {'stopOrGo': 'go', 'reward': 2.0, 'condition': 'go', 'auctionAmount': [132, 220, 88, 44, 176, 264], 'fileName': 'invertedtrianglewhite.gif'}, {'stopOrGo': 'go', 'reward': 1.0, 'condition': 'go', 'auctionAmount': [156, 39, 78, 234, 117, 195], 'fileName': 'triangleblue.gif'}, {'stopOrGo': 'go', 'reward': 2.0, 'condition': 'go', 'auctionAmount': [49, 98, 294, 147, 196, 245], 'fileName': 'invertedtrianglewhite.gif'}, {'stopOrGo': 'go', 'reward': 4.0, 'condition': 'go', 'auctionAmount': [54, 270, 162, 108, 324, 216], 'fileName': 'hexagonyellow.gif'}, {'stopOrGo': 'go', 'reward': 4.0, 'condition': 'go', 'auctionAmount': [88, 44, 176, 132, 264, 220], 'fileName': 'hexagonyellow.gif'}, {'stopOrGo': 'go', 'reward': 1.0, 'condition': 'go', 'auctionAmount': [220, 88, 132, 44, 264, 176], 'fileName': 'triangleblue.gif'}, {'stopOrGo': 'stop', 'reward': 0.5, 'condition': 'stop', 'auctionAmount': [68, 34, 136, 204, 170, 102], 'fileName': 'squareorange.gif'}, {'stopOrGo': 'go', 'reward': 4.0, 'condition': 'go', 'auctionAmount': [98, 294, 49, 147, 245, 196], 'fileName': 'hexagonyellow.gif'}, {'stopOrGo': 'stop', 'reward': 1.0, 'condition': 'stop', 'auctionAmount': [220, 132, 44, 264, 176, 88], 'fileName': 'linegreen.gif'}, {'stopOrGo': 'go', 'reward': 4.0, 'condition': 'go', 'auctionAmount': [162, 270, 216, 54, 108, 324], 'fileName': 'hexagonyellow.gif'}, {'stopOrGo': 'stop', 'reward': 1.0, 'condition': 'stop', 'auctionAmount': [234, 39, 156, 117, 195, 78], 'fileName': 'linegreen.gif'}, {'stopOrGo': 'go', 'reward': 4.0, 'condition': 'go', 'auctionAmount': [204, 68, 34, 170, 136, 102], 'fileName': 'hexagonyellow.gif'}, {'stopOrGo': 'go', 'reward': 4.0, 'condition': 'go', 'auctionAmount': [98, 49, 147, 245, 294, 196], 'fileName': 'hexagonyellow.gif'}, {'stopOrGo': 'stop', 'reward': 0.5, 'condition': 'stop', 'auctionAmount': [49, 245, 98, 147, 196, 294], 'fileName': 'squareorange.gif'}]",9,3.01726818085,,,,,,,,,,,,,,,,,,,,,,,,,,,,,,,,,,,,,,,,,,,,,,,,,,,,,,,,,,,,,,,,,,,,2015_Jun_17_1555,60.0997864993,LearningTask,,989,
-200,q,200,,,,0,0,0,1,,,,,,,,,,,,,,,,,,,,,,,,,,,,,,,,,,,,,,,q,1,0.366925001144,None,0,2.0,2.14,0.512664079666,0.00623297691345,0.366925001144,1,q,40.4413850307,,,,,,,,,,,,,,,,,,,,,,,,,,,,,,,,,,,,,,,,,,,,,,,,,,,,,,,2015_Jun_17_1555,60.0997864993,LearningTask,,989,
-200,a,-200,,,,0,1,1,3,,,,,,,,,,,,,,,,,,,,,,,,,,,,,,,,,,,,,,,a,1,0.300592184067,None,0,0.5,0,0.514583110809,0.00174999237061,0.300592184067,1,a,43.4414601326,,,,,,,,,,,,,,,,,,,,,,,,,,,,,,,,,,,,,,,,,,,,,,,,,,,,,,,2015_Jun_17_1555,60.0997864993,LearningTask,,989,
-200,q,200,,,,0,2,2,5,,,,,,,,,,,,,,,,,,,,,,,,,,,,,,,,,,,,,,,q,1,0.25077009201,None,0,0.5,0.51,0.514566898346,0.000967025756836,0.25077009201,1,q,46.4418241978,,,,,,,,,,,,,,,,,,,,,,,,,,,,,,,,,,,,,,,,,,,,,,,,,,,,,,,2015_Jun_17_1555,60.0997864993,LearningTask,,989,
200,w,200,,,,0,3,3,0,,,,,,,,,,,,,,,,,,,,,,,,,,,,,,,,,,,,,,,w,1,0.367748022079,None,0,1.0,0.9,0.513953924179,0.00173592567444,0.367748022079,1,w,49.4418590069,,,,,,,,,,,,,,,,,,,,,,,,,,,,,,,,,,,,,,,,,,,,,,,,,,,,,,,2015_Jun_17_1555,60.0997864993,LearningTask,,989,
200,s,-200,,,,0,4,4,2,,,,,,,,,,,,,,,,,,,,,,,,,,,,,,,,,,,,,,,s,1,0.35032916069,None,0,4.0,4.05,0.513689041138,0.00273895263672,0.35032916069,1,s,52.4420850277,,,,,,,,,,,,,,,,,,,,,,,,,,,,,,,,,,,,,,,,,,,,,,,,,,,,,,,2015_Jun_17_1555,60.0997864993,LearningTask,,989,
200,w,200,,,,0,5,5,8,,,,,,,,,,,,,,,,,,,,,,,,,,,,,,,,,,,,,,,w,1,0.383910894394,None,0,2.0,1.78,0.514533996582,0.00225305557251,0.383910894394,1,w,55.4429910183,,,,,,,,,,,,,,,,,,,,,,,,,,,,,,,,,,,,,,,,,,,,,,,,,,,,,,,2015_Jun_17_1555,60.0997864993,LearningTask,,989,
200,w,200,,,,0,6,6,4,,,,,,,,,,,,,,,,,,,,,,,,,,,,,,,,,,,,,,,w,1,0.351088047028,None,0,2.0,2.16,0.513007164001,0.00120806694031,0.351088047028,1,w,58.4433071613,,,,,,,,,,,,,,,,,,,,,,,,,,,,,,,,,,,,,,,,,,,,,,,,,,,,,,,2015_Jun_17_1555,60.0997864993,LearningTask,,989,
-200,a,-200,,,,0,7,7,7,,,,,,,,,,,,,,,,,,,,,,,,,,,,,,,,,,,,,,,a,1,0.350824117661,None,0,1.0,0.99,0.513468980789,0.00120115280151,0.350824117661,1,a,61.4429380894,,,,,,,,,,,,,,,,,,,,,,,,,,,,,,,,,,,,,,,,,,,,,,,,,,,,,,,2015_Jun_17_1555,60.0997864993,LearningTask,,989,
200,s,-200,,,,0,8,8,6,,,,,,,,,,,,,,,,,,,,,,,,,,,,,,,,,,,,,,,s,1,0.350826025009,None,0,1.0,0.97,0.514049053192,0.0017569065094,0.350826025009,1,s,64.4437801838,,,,,,,,,,,,,,,,,,,,,,,,,,,,,,,,,,,,,,,,,,,,,,,,,,,,,,,2015_Jun_17_1555,60.0997864993,LearningTask,,989,
-200,q,200,,,,0,9,9,9,,,,,,,,,,,,,,,,,,,,,,,,,,,,,,,,,,,,,,,q,1,0.367342948914,None,0,0.5,0.72,0.512850999832,0.00275492668152,0.367342948914,1,q,67.4440150261,,,,,,,,,,,,,,,,,,,,,,,,,,,,,,,,,,,,,,,,,,,,,,,,,,,,,,,2015_Jun_17_1555,60.0997864993,LearningTask,,989,
,,,z,0,-200,,,,,,,,,,0,0,0,0,,,,,,,,,,,,,,,,,,,,,,,,,,,,,,,,,,,,,,,,,,,71.7261490822,go,diamondmagenta.gif,go,0.5,z,1,0.333913087845,None,0,0.00157308578491,0.515340089798,74.7268211842,,,,,,,,,,,,,,,,,,,,,,,,,,,,,,,,,,,,,,,,,,2015_Jun_17_1555,60.0997864993,LearningTask,,989,
,,,z,0,-200,,,,,,,,,,0,1,1,0,,,,,,,,,,,,,,,,,,,,,,,,,,,,,,,,,,,,,,,,,,,74.7272310257,go,diamondmagenta.gif,go,0.5,z,1,0.55056810379,None,0,0.00100684165955,0.5151720047,77.7277841568,,,,,,,,,,,,,,,,,,,,,,,,,,,,,,,,,,,,,,,,,,2015_Jun_17_1555,60.0997864993,LearningTask,,989,
,,,z,0,-200,,,,,,,,,,1,0,2,0,,,,,,,,,,,,,,,,,,,,,,,,,,,,,,,,,,,,,,,,,,,77.72853899,go,hexagonyellow.gif,go,4.0,z,1,0.517020940781,None,0,0.00338292121887,0.513819932938,80.728000164,,,,,,,,,,,,,,,,,,,,,,,,,,,,,,,,,,,,,,,,,,2015_Jun_17_1555,60.0997864993,LearningTask,,989,
,,,m,0,200,,,,,,,,,,1,1,3,1,,,,,,,,,,,,,,,,,,,,,,,,,,,,,,,,,,,,,,,,,,,80.7287530899,stop,linegreen.gif,stop,1.0,m,1,0.566942930222,None,0,0.00177001953125,0.51384806633,83.7284040451,0.763735055923,,,,,,,,,,,,,,,,,,,,,,,,,,,,,,,,,,,,,,,,,2015_Jun_17_1555,60.0997864993,LearningTask,,989,
,,,z,0,-200,,,,,,,,,,2,0,4,0,,,,,,,,,,,,,,,,,,,,,,,,,,,,,,,,,,,,,,,,,,,83.7291471958,stop,crossgray.gif,stop,2.0,z,1,0.483542203903,None,0,0.00156998634338,0.51376414299,86.7283191681,0.763616085052,,,,,,,,,,,,,,,,,,,,,,,,,,,,,,,,,,,,,,,,,2015_Jun_17_1555,60.0997864993,LearningTask,,989,
,,,m,0,200,,,,,,,,,,2,1,5,1,,,,,,,,,,,,,,,,,,,,,,,,,,,,,,,,,,,,,,,,,,,86.7288691998,stop,circlecyan.gif,stop,4.0,None,0,,None,0,0.00124716758728,0.514058113098,89.7289850712,0.763980150223,,,,,,,,,,,,,,,,,,,,,,,,,,,,,,,,,,,,,,,,,2015_Jun_17_1555,60.0997864993,LearningTask,,989,
,,,m,0,200,,,,,,,,,,3,0,6,1,,,,,,,,,,,,,,,,,,,,,,,,,,,,,,,,,,,,,,,,,,,89.7296831608,stop,linegreen.gif,stop,1.0,None,0,,None,0,0.00123596191406,0.513782978058,92.7289361954,0.763821840286,,,,,,,,,,,,,,,,,,,,,,,,,,,,,,,,,,,,,,,,,2015_Jun_17_1555,60.0997864993,LearningTask,,989,
,,,z,0,-200,,,,,,,,,,3,1,7,0,,,,,,,,,,,,,,,,,,,,,,,,,,,,,,,,,,,,,,,,,,,92.7296760082,stop,circlecyan.gif,stop,4.0,None,0,,None,0,0.00138807296753,0.513432025909,95.7287421227,0.763648986816,,,,,,,,,,,,,,,,,,,,,,,,,,,,,,,,,,,,,,,,,2015_Jun_17_1555,60.0997864993,LearningTask,,989,
,,,m,0,200,,,,,,,,,,4,0,8,1,,,,,,,,,,,,,,,,,,,,,,,,,,,,,,,,,,,,,,,,,,,95.7292530537,go,invertedtrianglewhite.gif,go,2.0,m,1,0.667221069336,None,0,0.00128507614136,0.514383077621,98.7292401791,,,,,,,,,,,,,,,,,,,,,,,,,,,,,,,,,,,,,,,,,,2015_Jun_17_1555,60.0997864993,LearningTask,,989,
,,,m,0,200,,,,,,,,,,4,1,9,1,,,,,,,,,,,,,,,,,,,,,,,,,,,,,,,,,,,,,,,,,,,98.7299780846,go,hexagonyellow.gif,go,4.0,m,1,0.367253780365,None,0,0.00171518325806,0.513920068741,101.729489088,,,,,,,,,,,,,,,,,,,,,,,,,,,,,,,,,,,,,,,,,,2015_Jun_17_1555,60.0997864993,LearningTask,,989,
,,,,,,,,,,,,,,,,,,,,,,,,,,,,,,,,,,,,,,,,,,,,,,,,,,,,,,,,,,,,,,,,,,,,,,,,,,,space,6.00454497337,,,,,,,,,,,,,,,,,,,,,,,,,,,,,,,,,,,,,,,2015_Jun_17_1555,60.0997864993,LearningTask,,989,
,,,,,,,,,,,,,,,,,,,,,,,,,,,,,,,,,,,,,,,,,,,,,,9,4.01622319221,,,,,,,,,,,,,,,,,,,,,,,,,,,,,,,,,,,,,,,,,,,,,,,,,,,,,,,,,,,,,,,,,,,,2015_Jun_17_1555,60.0997864993,LearningTask,,989,
200,w,200,,,,,,,,,,,,,,,,,0,0,0,0,0,0,0,0,,,,,,,,,,,,,,,,,,,,,,w,1,0.36692905426,None,0,0.5,,,,,,,,,,,,,,,,,,,,,,,,0,0.513825178146,0.00113010406494,0.36692905426,1,w,114.914036036,,,,,,,,,,,,,,,,,,,,,,,,,,,,,,,,2015_Jun_17_1555,60.0997864993,LearningTask,,989,
200,s,-200,,,,,,,,,,,,,,,,,0,0,0,0,0,1,1,2,,,,,,,,,,,,,,,,,,,,,,s,1,0.318040132523,None,0,4.0,,,,,,,,,,,,,,,,,,,,,,,,4.0,0.513157844543,0.00096583366394,0.318040132523,1,s,117.913735151,,,,,,,,,,,,,,,,,,,,,,,,,,,,,,,,2015_Jun_17_1555,60.0997864993,LearningTask,,989,
200,s,-200,,,,,,,,,,,,,,,,,0,0,0,0,0,2,2,2,,,,,,,,,,,,,,,,,,,,,,s,1,0.334089040756,None,0,0.5,,,,,,,,,,,,,,,,,,,,,,,,0.6,0.513962984085,0.000935077667236,0.334089040756,1,s,120.915019035,,,,,,,,,,,,,,,,,,,,,,,,,,,,,,,,2015_Jun_17_1555,60.0997864993,LearningTask,,989,
200,s,-200,,,,,,,,,,,,,,,,,0,0,0,0,0,3,3,2,,,,,,,,,,,,,,,,,,,,,,s,1,0.467519044876,None,0,2.0,,,,,,,,,,,,,,,,,,,,,,,,1.84,0.512316942215,0.00119996070862,0.467519044876,1,s,123.915518999,,,,,,,,,,,,,,,,,,,,,,,,,,,,,,,,2015_Jun_17_1555,60.0997864993,LearningTask,,989,
200,s,-200,,,,,,,,,,,,,,,,,0,0,0,0,1,0,4,2,,,,,,,,,,,,,,,,,,,,,,s,1,0.35085606575,None,0,4.0,,,,,,,,,,,,,,,,,,,,,,,,4.09,0.511869192123,0.00121903419495,0.35085606575,1,s,126.914455175,,,,,,,,,,,,,,,,,,,,,,,,,,,,,,,,2015_Jun_17_1555,60.0997864993,LearningTask,,989,
200,s,-200,,,,,,,,,,,,,,,,,0,0,0,0,1,1,5,2,,,,,,,,,,,,,,,,,,,,,,s,1,0.367254972458,None,0,2.0,,,,,,,,,,,,,,,,,,,,,,,,2.09,0.513810157776,0.00101399421692,0.367254972458,1,s,129.914619207,,,,,,,,,,,,,,,,,,,,,,,,,,,,,,,,2015_Jun_17_1555,60.0997864993,LearningTask,,989,
-200,a,-200,,,,,,,,,,,,,,,,,0,0,0,0,1,2,6,3,,,,,,,,,,,,,,,,,,,,,,a,1,0.350907087326,None,0,0.5,,,,,,,,,,,,,,,,,,,,,,,,0.63,0.514056921005,0.000911951065063,0.350907087326,1,a,132.915378094,,,,,,,,,,,,,,,,,,,,,,,,,,,,,,,,2015_Jun_17_1555,60.0997864993,LearningTask,,989,
-200,a,-200,,,,,,,,,,,,,,,,,0,0,0,0,1,3,7,3,,,,,,,,,,,,,,,,,,,,,,a,1,0.400729179382,None,0,2.0,,,,,,,,,,,,,,,,,,,,,,,,1.97,0.512921094894,0.0011670589447,0.400729179382,1,a,135.915863991,,,,,,,,,,,,,,,,,,,,,,,,,,,,,,,,2015_Jun_17_1555,60.0997864993,LearningTask,,989,
200,s,-200,,,,,,,,,,,,,,,,,0,0,0,0,2,0,8,2,,,,,,,,,,,,,,,,,,,,,,s,1,0.36735701561,None,0,0.5,,,,,,,,,,,,,,,,,,,,,,,,0.56,0.513060808182,0.000929832458496,0.36735701561,1,s,138.915700197,,,,,,,,,,,,,,,,,,,,,,,,,,,,,,,,2015_Jun_17_1555,60.0997864993,LearningTask,,989,
-200,q,200,,,,,,,,,,,,,,,,,0,0,0,0,2,1,9,1,,,,,,,,,,,,,,,,,,,,,,q,1,0.367503881454,None,0,4.0,,,,,,,,,,,,,,,,,,,,,,,,4.08,0.513528108597,0.00100708007812,0.367503881454,1,q,141.916285038,,,,,,,,,,,,,,,,,,,,,,,,,,,,,,,,2015_Jun_17_1555,60.0997864993,LearningTask,,989,
200,w,200,,,,,,,,,,,,,,,,,0,0,0,0,2,2,10,0,,,,,,,,,,,,,,,,,,,,,,w,1,0.384366989136,None,0,1.0,,,,,,,,,,,,,,,,,,,,,,,,1.03,0.512535810471,0.00117683410645,0.384366989136,1,w,144.91672802,,,,,,,,,,,,,,,,,,,,,,,,,,,,,,,,2015_Jun_17_1555,60.0997864993,LearningTask,,989,
-200,q,200,,,,,,,,,,,,,,,,,0,0,0,0,2,3,11,1,,,,,,,,,,,,,,,,,,,,,,q,1,0.484532833099,None,0,2.0,,,,,,,,,,,,,,,,,,,,,,,,2.03,0.511940956116,0.00120091438293,0.484532833099,1,q,147.91703105,,,,,,,,,,,,,,,,,,,,,,,,,,,,,,,,2015_Jun_17_1555,60.0997864993,LearningTask,,989,
-200,a,-200,,,,,,,,,,,,,,,,,0,0,0,0,3,0,12,3,,,,,,,,,,,,,,,,,,,,,,a,1,0.400744199753,None,0,2.0,,,,,,,,,,,,,,,,,,,,,,,,2.1,0.512182950974,0.00127291679382,0.400744199753,1,a,150.917534113,,,,,,,,,,,,,,,,,,,,,,,,,,,,,,,,2015_Jun_17_1555,60.0997864993,LearningTask,,989,
-200,q,200,,,,,,,,,,,,,,,,,0,0,0,0,3,1,13,1,,,,,,,,,,,,,,,,,,,,,,q,1,0.401240825653,None,0,0.5,,,,,,,,,,,,,,,,,,,,,,,,0,0.511428117752,0.0012001991272,0.401240825653,1,q,153.91744113,,,,,,,,,,,,,,,,,,,,,,,,,,,,,,,,2015_Jun_17_1555,60.0997864993,LearningTask,,989,
200,s,-200,,,,,,,,,,,,,,,,,0,0,0,0,3,2,14,2,,,,,,,,,,,,,,,,,,,,,,s,1,0.334189176559,None,0,0.5,,,,,,,,,,,,,,,,,,,,,,,,0.74,0.512398958206,0.00127387046814,0.334189176559,1,s,156.917591095,,,,,,,,,,,,,,,,,,,,,,,,,,,,,,,,2015_Jun_17_1555,60.0997864993,LearningTask,,989,
-200,q,200,,,,,,,,,,,,,,,,,0,0,0,0,3,3,15,1,,,,,,,,,,,,,,,,,,,,,,q,1,0.367707014084,None,0,2.0,,,,,,,,,,,,,,,,,,,,,,,,2.25,0.512181997299,0.00120306015015,0.367707014084,1,q,159.91766715,,,,,,,,,,,,,,,,,,,,,,,,,,,,,,,,2015_Jun_17_1555,60.0997864993,LearningTask,,989,
200,w,200,,,,,,,,,,,,,,,,,0,0,0,0,4,0,16,0,,,,,,,,,,,,,,,,,,,,,,w,1,0.400943994522,None,0,1.0,,,,,,,,,,,,,,,,,,,,,,,,0.97,0.512302875519,0.00118088722229,0.400943994522,1,w,162.918174028,,,,,,,,,,,,,,,,,,,,,,,,,,,,,,,,2015_Jun_17_1555,60.0997864993,LearningTask,,989,
-200,a,-200,,,,,,,,,,,,,,,,,0,0,0,0,4,1,17,3,,,,,,,,,,,,,,,,,,,,,,a,1,0.350453853607,None,0,2.0,,,,,,,,,,,,,,,,,,,,,,,,1.97,0.512073993683,0.00120711326599,0.350453853607,1,a,165.918250084,,,,,,,,,,,,,,,,,,,,,,,,,,,,,,,,2015_Jun_17_1555,60.0997864993,LearningTask,,989,
200,s,-200,,,,,,,,,,,,,,,,,0,0,0,0,4,2,18,2,,,,,,,,,,,,,,,,,,,,,,s,1,0.35004901886,None,0,0.5,,,,,,,,,,,,,,,,,,,,,,,,0.37,0.51230597496,0.00119590759277,0.35004901886,1,s,168.918652058,,,,,,,,,,,,,,,,,,,,,,,,,,,,,,,,2015_Jun_17_1555,60.0997864993,LearningTask,,989,
200,s,-200,,,,,,,,,,,,,,,,,0,0,0,0,4,3,19,2,,,,,,,,,,,,,,,,,,,,,,s,1,0.600698947906,None,0,0.5,,,,,,,,,,,,,,,,,,,,,,,,0.7,0.511563062668,0.0012059211731,0.600698947906,1,s,171.918711185,,,,,,,,,,,,,,,,,,,,,,,,,,,,,,,,2015_Jun_17_1555,60.0997864993,LearningTask,,989,
200,w,200,,,,,,,,,,,,,,,,,0,0,0,0,5,0,20,0,,,,,,,,,,,,,,,,,,,,,,w,1,0.451010942459,None,0,1.0,,,,,,,,,,,,,,,,,,,,,,,,1.04,0.511852025986,0.00123310089111,0.451010942459,1,w,174.919078112,,,,,,,,,,,,,,,,,,,,,,,,,,,,,,,,2015_Jun_17_1555,60.0997864993,LearningTask,,989,
-200,a,-200,,,,,,,,,,,,,,,,,0,0,0,0,5,1,21,3,,,,,,,,,,,,,,,,,,,,,,a,1,0.450942993164,None,0,1.0,,,,,,,,,,,,,,,,,,,,,,,,0.98,0.511755943298,0.00119400024414,0.450942993164,1,a,177.919373035,,,,,,,,,,,,,,,,,,,,,,,,,,,,,,,,2015_Jun_17_1555,60.0997864993,LearningTask,,989,
200,s,-200,,,,,,,,,,,,,,,,,0,0,0,0,5,2,22,2,,,,,,,,,,,,,,,,,,,,,,s,1,0.384391069412,None,0,1.0,,,,,,,,,,,,,,,,,,,,,,,,0.93,0.511703968048,0.00139689445496,0.384391069412,1,s,180.919349194,,,,,,,,,,,,,,,,,,,,,,,,,,,,,,,,2015_Jun_17_1555,60.0997864993,LearningTask,,989,
200,w,200,,,,,,,,,,,,,,,,,0,0,0,0,5,3,23,0,,,,,,,,,,,,,,,,,,,,,,w,1,0.284219026566,None,0,2.0,,,,,,,,,,,,,,,,,,,,,,,,0.93,0.511936187744,0.00122404098511,0.284041166306,0,q,183.919142008,1.95,0.514272928238,0.00125193595886,0.284219026566,1,w,186.920456171,,,,,,,,,,,,,,,,,,,,,,,,,2015_Jun_17_1555,60.0997864993,LearningTask,,989,
-200,q,200,,,,,,,,,,,,,,,,,0,0,0,0,6,0,24,1,,,,,,,,,,,,,,,,,,,,,,q,1,0.367071151733,None,0,0.5,,,,,,,,,,,,,,,,,,,,,,,,0.25,0.511522054672,0.00118112564087,0.367071151733,1,q,189.920196056,,,,,,,,,,,,,,,,,,,,,,,,,,,,,,,,2015_Jun_17_1555,60.0997864993,LearningTask,,989,
200,w,200,,,,,,,,,,,,,,,,,0,0,0,0,6,1,25,0,,,,,,,,,,,,,,,,,,,,,,w,1,0.3843998909,None,0,4.0,,,,,,,,,,,,,,,,,,,,,,,,0,0.511744976044,0.00123405456543,0.3843998909,1,w,192.920273066,,,,,,,,,,,,,,,,,,,,,,,,,,,,,,,,2015_Jun_17_1555,60.0997864993,LearningTask,,989,
-200,a,-200,,,,,,,,,,,,,,,,,0,0,0,0,6,2,26,3,,,,,,,,,,,,,,,,,,,,,,a,1,0.43418097496,None,0,0.5,,,,,,,,,,,,,,,,,,,,,,,,0,0.512012958527,0.00153398513794,[],0,None,195.920542002,0,0.513318061829,0.00139212608337,0.43418097496,1,a,198.920649052,0.157397031784,,,,,,,,,,,,,,,,,,,,,,,,2015_Jun_17_1555,60.0997864993,LearningTask,,989,
-200,a,-200,,,,,,,,,,,,,,,,,0,0,0,0,6,3,27,3,,,,,,,,,,,,,,,,,,,,,,a,1,0.434156179428,None,0,2.0,,,,,,,,,,,,,,,,,,,,,,,,1.89,0.512158155441,0.00121092796326,0.434156179428,1,a,201.921003103,,,,,,,,,,,,,,,,,,,,,,,,,,,,,,,,2015_Jun_17_1555,60.0997864993,LearningTask,,989,
200,w,200,,,,,,,,,,,,,,,,,0,0,0,0,7,0,28,0,,,,,,,,,,,,,,,,,,,,,,w,1,0.100982904434,None,0,0.5,,,,,,,,,,,,,,,,,,,,,,,,1.89,0.512245178223,0.00125002861023,[],0,None,204.920353174,1.89,0.51443696022,0.00124788284302,[],0,None,207.920956135,0.277166128159,0.56,0.513165950775,0.00114488601685,0.100982904434,1,w,210.922291994,,,,,,,,,,,,,,,,,2015_Jun_17_1555,60.0997864993,LearningTask,,989,
-200,a,-200,,,,,,,,,,,,,,,,,0,0,0,0,7,1,29,3,,,,,,,,,,,,,,,,,,,,,,a,1,0.883637905121,None,0,0.5,,,,,,,,,,,,,,,,,,,,,,,,0,0.511337041855,0.00118088722229,0.883637905121,1,a,213.922028065,,,,,,,,,,,,,,,,,,,,,,,,,,,,,,,,2015_Jun_17_1555,60.0997864993,LearningTask,,989,
-200,q,200,,,,,,,,,,,,,,,,,0,0,0,0,7,2,30,1,,,,,,,,,,,,,,,,,,,,,,q,1,0.467370986938,None,0,0.5,,,,,,,,,,,,,,,,,,,,,,,,0,0.511862039566,0.00119209289551,[],0,None,216.922342062,0,0.51312494278,0.0012469291687,[],0,None,219.922060013,0.125797986984,0,0.513823986053,0.00147390365601,[],0,None,222.922574997,0,0.513350963593,0.00151491165161,[],0,None,225.923141003,0.61,0.513102054596,0.00124001502991,0.467370986938,1,q,228.922526121,,,2015_Jun_17_1555,60.0997864993,LearningTask,,989,
200,s,-200,,,,,,,,,,,,,,,,,0,0,0,0,7,3,31,2,,,,,,,,,,,,,,,,,,,,,,s,1,0.351114988327,None,0,4.0,,,,,,,,,,,,,,,,,,,,,,,,4.13,0.5125041008,0.00114297866821,0.351114988327,1,s,231.922667027,,,,,,,,,,,,,,,,,,,,,,,,,,,,,,,,2015_Jun_17_1555,60.0997864993,LearningTask,,989,
200,s,-200,,,,,,,,,,,,,,,,,0,0,0,0,8,0,32,2,,,,,,,,,,,,,,,,,,,,,,s,1,0.567466020584,None,0,1.0,,,,,,,,,,,,,,,,,,,,,,,,1.15,0.511618852615,0.00110602378845,0.567466020584,1,s,234.922959089,,,,,,,,,,,,,,,,,,,,,,,,,,,,,,,,2015_Jun_17_1555,60.0997864993,LearningTask,,989,
-200,a,-200,,,,,,,,,,,,,,,,,0,0,0,0,8,1,33,3,,,,,,,,,,,,,,,,,,,,,,a,1,0.58397603035,None,0,0.5,,,,,,,,,,,,,,,,,,,,,,,,0,0.512006998062,0.00121903419495,0.58397603035,1,a,237.922656059,,,,,,,,,,,,,,,,,,,,,,,,,,,,,,,,2015_Jun_17_1555,60.0997864993,LearningTask,,989,
-200,a,-200,,,,,,,,,,,,,,,,,0,0,0,0,8,2,34,3,,,,,,,,,,,,,,,,,,,,,,a,1,0.717303037643,None,0,2.0,,,,,,,,,,,,,,,,,,,,,,,,2.14,0.512804985046,0.00110697746277,0.717303037643,1,a,240.923649073,,,,,,,,,,,,,,,,,,,,,,,,,,,,,,,,2015_Jun_17_1555,60.0997864993,LearningTask,,989,
200,w,200,,,,,,,,,,,,,,,,,0,0,0,0,8,3,35,0,,,,,,,,,,,,,,,,,,,,,,w,1,0.567878961563,None,0,1.0,,,,,,,,,,,,,,,,,,,,,,,,0.81,0.511932134628,0.00120306015015,0.567878961563,1,w,243.923349142,,,,,,,,,,,,,,,,,,,,,,,,,,,,,,,,2015_Jun_17_1555,60.0997864993,LearningTask,,989,
-200,a,-200,,,,,,,,,,,,,,,,,0,0,0,0,9,0,36,3,,,,,,,,,,,,,,,,,,,,,,a,1,0.634269952774,None,0,2.0,,,,,,,,,,,,,,,,,,,,,,,,2.1,0.512388944626,0.00120091438293,0.634269952774,1,a,246.923989058,,,,,,,,,,,,,,,,,,,,,,,,,,,,,,,,2015_Jun_17_1555,60.0997864993,LearningTask,,989,
200,s,-200,,,,,,,,,,,,,,,,,0,0,0,0,9,1,37,2,,,,,,,,,,,,,,,,,,,,,,s,1,0.367518901825,None,0,1.0,,,,,,,,,,,,,,,,,,,,,,,,1.07,0.511967897415,0.00123691558838,0.367518901825,1,s,249.923572063,,,,,,,,,,,,,,,,,,,,,,,,,,,,,,,,2015_Jun_17_1555,60.0997864993,LearningTask,,989,
200,s,-200,,,,,,,,,,,,,,,,,0,0,0,0,9,2,38,2,,,,,,,,,,,,,,,,,,,,,,s,1,0.433708906174,None,0,4.0,,,,,,,,,,,,,,,,,,,,,,,,4.05,0.513065814972,0.00111293792725,0.433708906174,1,s,252.924405098,,,,,,,,,,,,,,,,,,,,,,,,,,,,,,,,2015_Jun_17_1555,60.0997864993,LearningTask,,989,
-200,a,-200,,,,,,,,,,,,,,,,,0,0,0,0,9,3,39,3,,,,,,,,,,,,,,,,,,,,,,a,1,0.317299842834,None,0,1.0,,,,,,,,,,,,,,,,,,,,,,,,1.18,0.511866092682,0.0011990070343,0.317299842834,1,a,255.924625158,,,,,,,,,,,,,,,,,,,,,,,,,,,,,,,,2015_Jun_17_1555,60.0997864993,LearningTask,,989,
-200,q,200,,,,,,,,,,,,,,,,,0,0,0,0,10,0,40,1,,,,,,,,,,,,,,,,,,,,,,q,1,0.350670814514,None,0,2.0,,,,,,,,,,,,,,,,,,,,,,,,2.14,0.512296915054,0.0012469291687,0.350670814514,1,q,258.924840212,,,,,,,,,,,,,,,,,,,,,,,,,,,,,,,,2015_Jun_17_1555,60.0997864993,LearningTask,,989,
200,w,200,,,,,,,,,,,,,,,,,0,0,0,0,10,1,41,0,,,,,,,,,,,,,,,,,,,,,,w,1,0.566921949387,None,0,1.0,,,,,,,,,,,,,,,,,,,,,,,,0.89,0.511992931366,0.00118899345398,0.566921949387,1,w,261.924197197,,,,,,,,,,,,,,,,,,,,,,,,,,,,,,,,2015_Jun_17_1555,60.0997864993,LearningTask,,989,
-200,q,200,,,,,,,,,,,,,,,,,0,0,0,0,10,2,42,1,,,,,,,,,,,,,,,,,,,,,,q,1,0.650661945343,None,0,2.0,,,,,,,,,,,,,,,,,,,,,,,,0,0.513397932053,0.00109505653381,0.650661945343,1,q,264.926108122,,,,,,,,,,,,,,,,,,,,,,,,,,,,,,,,2015_Jun_17_1555,60.0997864993,LearningTask,,989,
-200,q,200,,,,,,,,,,,,,,,,,0,0,0,0,10,3,43,1,,,,,,,,,,,,,,,,,,,,,,q,1,0.617665052414,None,0,4.0,,,,,,,,,,,,,,,,,,,,,,,,3.75,0.510865926743,0.00125598907471,0.617665052414,1,q,267.924684048,,,,,,,,,,,,,,,,,,,,,,,,,,,,,,,,2015_Jun_17_1555,60.0997864993,LearningTask,,989,
200,s,-200,,,,,,,,,,,,,,,,,0,0,0,0,11,0,44,2,,,,,,,,,,,,,,,,,,,,,,s,1,0.834237098694,None,0,1.0,,,,,,,,,,,,,,,,,,,,,,,,0.93,0.51309800148,0.00165820121765,0.834237098694,1,s,270.925630093,,,,,,,,,,,,,,,,,,,,,,,,,,,,,,,,2015_Jun_17_1555,60.0997864993,LearningTask,,989,
-200,a,-200,,,,,,,,,,,,,,,,,0,0,0,0,11,1,45,3,,,,,,,,,,,,,,,,,,,,,,a,1,0.650973081589,None,0,0.5,,,,,,,,,,,,,,,,,,,,,,,,0,0.512010097504,0.00118112564087,0.650973081589,1,a,273.925129175,,,,,,,,,,,,,,,,,,,,,,,,,,,,,,,,2015_Jun_17_1555,60.0997864993,LearningTask,,989,
200,s,-200,,,,,,,,,,,,,,,,,0,0,0,0,11,2,46,2,,,,,,,,,,,,,,,,,,,,,,s,1,0.500195980072,None,0,0.5,,,,,,,,,,,,,,,,,,,,,,,,0.67,0.512881040573,0.00111794471741,0.500195980072,1,s,276.926081181,,,,,,,,,,,,,,,,,,,,,,,,,,,,,,,,2015_Jun_17_1555,60.0997864993,LearningTask,,989,
200,s,-200,,,,,,,,,,,,,,,,,0,0,0,0,11,3,47,2,,,,,,,,,,,,,,,,,,,,,,s,1,0.533846855164,None,0,0.5,,,,,,,,,,,,,,,,,,,,,,,,0.74,0.512185811996,0.0011990070343,0.533846855164,1,s,279.924956083,,,,,,,,,,,,,,,,,,,,,,,,,,,,,,,,2015_Jun_17_1555,60.0997864993,LearningTask,,989,
-200,q,200,,,,,,,,,,,,,,,,,0,0,0,0,12,0,48,1,,,,,,,,,,,,,,,,,,,,,,q,1,0.500759124756,None,0,1.0,,,,,,,,,,,,,,,,,,,,,,,,0.74,0.513977050781,0.000982046127319,[],0,None,282.926573038,0.89,0.513543844223,0.00148987770081,0.500759124756,1,q,285.925872087,0.14342713356,,,,,,,,,,,,,,,,,,,,,,,,2015_Jun_17_1555,60.0997864993,LearningTask,,989,
-200,q,200,,,,,,,,,,,,,,,,,0,0,0,0,12,1,49,1,,,,,,,,,,,,,,,,,,,,,,q,1,0.416942119598,None,0,1.0,,,,,,,,,,,,,,,,,,,,,,,,0.95,0.513295173645,0.00102806091309,0.416942119598,1,q,288.92575407,,,,,,,,,,,,,,,,,,,,,,,,,,,,,,,,2015_Jun_17_1555,60.0997864993,LearningTask,,989,
-200,a,-200,,,,,,,,,,,,,,,,,0,0,0,0,12,2,50,3,,,,,,,,,,,,,,,,,,,,,,a,1,0.601001977921,None,0,0.5,,,,,,,,,,,,,,,,,,,,,,,,0.48,0.513857841492,0.00109100341797,0.601001977921,1,a,291.926290989,,,,,,,,,,,,,,,,,,,,,,,,,,,,,,,,2015_Jun_17_1555,60.0997864993,LearningTask,,989,
-200,q,200,,,,,,,,,,,,,,,,,0,0,0,0,12,3,51,1,,,,,,,,,,,,,,,,,,,,,,q,1,0.38384604454,None,0,2.0,,,,,,,,,,,,,,,,,,,,,,,,0,0.513433933258,0.000872850418091,0.38384604454,1,q,294.927273035,,,,,,,,,,,,,,,,,,,,,,,,,,,,,,,,2015_Jun_17_1555,60.0997864993,LearningTask,,989,
-200,a,-200,,,,,,,,,,,,,,,,,0,0,0,0,13,0,52,3,,,,,,,,,,,,,,,,,,,,,,a,1,0.867250919342,None,0,2.0,,,,,,,,,,,,,,,,,,,,,,,,1.75,0.510622024536,0.00178623199463,0.867250919342,1,a,297.926756144,,,,,,,,,,,,,,,,,,,,,,,,,,,,,,,,2015_Jun_17_1555,60.0997864993,LearningTask,,989,
-200,a,-200,,,,,,,,,,,,,,,,,0,0,0,0,13,1,53,3,,,,,,,,,,,,,,,,,,,,,,a,1,0.617271900177,None,0,2.0,,,,,,,,,,,,,,,,,,,,,,,,1.84,0.5129301548,0.00155711174011,0.617271900177,1,a,300.926998138,,,,,,,,,,,,,,,,,,,,,,,,,,,,,,,,2015_Jun_17_1555,60.0997864993,LearningTask,,989,
200,s,-200,,,,,,,,,,,,,,,,,0,0,0,0,13,2,54,2,,,,,,,,,,,,,,,,,,,,,,s,1,0.351001024246,None,0,2.0,,,,,,,,,,,,,,,,,,,,,,,,1.75,0.512941122055,0.0010781288147,0.351001024246,1,s,303.926922083,,,,,,,,,,,,,,,,,,,,,,,,,,,,,,,,2015_Jun_17_1555,60.0997864993,LearningTask,,989,
-200,a,-200,,,,,,,,,,,,,,,,,0,0,0,0,13,3,55,3,,,,,,,,,,,,,,,,,,,,,,a,1,0.517338037491,None,0,4.0,,,,,,,,,,,,,,,,,,,,,,,,3.94,0.513753890991,0.00136184692383,0.517338037491,1,a,306.928122997,,,,,,,,,,,,,,,,,,,,,,,,,,,,,,,,2015_Jun_17_1555,60.0997864993,LearningTask,,989,
-200,a,-200,,,,,,,,,,,,,,,,,0,0,0,0,14,0,56,3,,,,,,,,,,,,,,,,,,,,,,a,1,0.767332077026,None,0,2.0,,,,,,,,,,,,,,,,,,,,,,,,1.97,0.512276887894,0.00121688842773,0.767332077026,1,a,309.928351164,,,,,,,,,,,,,,,,,,,,,,,,,,,,,,,,2015_Jun_17_1555,60.0997864993,LearningTask,,989,
200,w,200,,,,,,,,,,,,,,,,,0,0,0,0,14,1,57,0,,,,,,,,,,,,,,,,,,,,,,w,1,0.283987045288,w,1,1.0,,,,,,,,,,,,,,,,,,,,,,,,1.97,0.511636018753,0.00178194046021,0.834383010864,0,q,312.929013014,1.97,0.513470888138,0.00126695632935,[],0,None,315.928809166,0.522075176239,1.18,0.513856887817,0.00126194953918,0.283987045288,1,w,318.929027081,,,,,,,,,,,,,,,,,2015_Jun_17_1555,60.0997864993,LearningTask,,989,
-200,q,200,,,,,,,,,,,,,,,,,0,0,0,0,14,2,58,1,,,,,,,,,,,,,,,,,,,,,,q,1,0.417801141739,None,0,0.5,,,,,,,,,,,,,,,,,,,,,,,,0.25,0.511813879013,0.00164794921875,0.417801141739,1,q,321.929069042,,,,,,,,,,,,,,,,,,,,,,,,,,,,,,,,2015_Jun_17_1555,60.0997864993,LearningTask,,989,
200,w,200,,,,,,,,,,,,,,,,,0,0,0,0,14,3,59,0,,,,,,,,,,,,,,,,,,,,,,w,1,0.317326068878,None,0,2.0,,,,,,,,,,,,,,,,,,,,,,,,0.25,0.512370109558,0.00162315368652,[],0,None,324.929316044,1.83,0.513954877853,0.00132989883423,0.317326068878,1,w,327.929548025,,,,,,,,,,,,,,,,,,,,,,,,,2015_Jun_17_1555,60.0997864993,LearningTask,,989,
200,s,-200,,,,,,,,,,,,,,,,,0,0,0,0,15,0,60,2,,,,,,,,,,,,,,,,,,,,,,s,1,0.451030015945,None,0,2.0,,,,,,,,,,,,,,,,,,,,,,,,1.8,0.511713027954,0.0012309551239,0.451030015945,1,s,330.929841995,,,,,,,,,,,,,,,,,,,,,,,,,,,,,,,,2015_Jun_17_1555,60.0997864993,LearningTask,,989,
-200,a,-200,,,,,,,,,,,,,,,,,0,0,0,0,15,1,61,3,,,,,,,,,,,,,,,,,,,,,,a,1,0.517363071442,None,0,0.5,,,,,,,,,,,,,,,,,,,,,,,,0.29,0.511930942535,0.00173902511597,0.517363071442,1,a,333.929655075,,,,,,,,,,,,,,,,,,,,,,,,,,,,,,,,2015_Jun_17_1555,60.0997864993,LearningTask,,989,
-200,q,200,,,,,,,,,,,,,,,,,0,0,0,0,15,2,62,1,,,,,,,,,,,,,,,,,,,,,,q,1,0.550470113754,None,0,2.0,,,,,,,,,,,,,,,,,,,,,,,,0,0.512449026108,0.00116491317749,0.550470113754,1,q,336.93017602,,,,,,,,,,,,,,,,,,,,,,,,,,,,,,,,2015_Jun_17_1555,60.0997864993,LearningTask,,989,
200,w,200,,,,,,,,,,,,,,,,,0,0,0,0,15,3,63,0,,,,,,,,,,,,,,,,,,,,,,w,1,0.45031619072,None,0,4.0,,,,,,,,,,,,,,,,,,,,,,,,4.14,0.512335062027,0.00169110298157,0.45031619072,1,w,339.930636168,,,,,,,,,,,,,,,,,,,,,,,,,,,,,,,,2015_Jun_17_1555,60.0997864993,LearningTask,,989,
-200,a,-200,,,,,,,,,,,,,,,,,0,0,0,0,16,0,64,3,,,,,,,,,,,,,,,,,,,,,,a,1,0.484390974045,None,0,1.0,,,,,,,,,,,,,,,,,,,,,,,,1.0,0.511193037033,0.00176811218262,0.484390974045,1,a,342.93078208,,,,,,,,,,,,,,,,,,,,,,,,,,,,,,,,2015_Jun_17_1555,60.0997864993,LearningTask,,989,
-200,a,-200,,,,,,,,,,,,,,,,,0,0,0,0,16,1,65,3,,,,,,,,,,,,,,,,,,,,,,a,1,0.484129905701,None,0,0.5,,,,,,,,,,,,,,,,,,,,,,,,0.6,0.512209892273,0.00119495391846,0.484129905701,1,a,345.930007219,,,,,,,,,,,,,,,,,,,,,,,,,,,,,,,,2015_Jun_17_1555,60.0997864993,LearningTask,,989,
200,w,200,,,,,,,,,,,,,,,,,0,0,0,0,16,2,66,0,,,,,,,,,,,,,,,,,,,,,,w,1,0.350718975067,None,0,0.5,,,,,,,,,,,,,,,,,,,,,,,,0.61,0.513060808182,0.00110101699829,0.350718975067,1,w,348.931090117,,,,,,,,,,,,,,,,,,,,,,,,,,,,,,,,2015_Jun_17_1555,60.0997864993,LearningTask,,989,
200,w,200,,,,,,,,,,,,,,,,,0,0,0,0,16,3,67,0,,,,,,,,,,,,,,,,,,,,,,w,1,0.417454004288,None,0,0.5,,,,,,,,,,,,,,,,,,,,,,,,0.67,0.511154174805,0.00124502182007,0.417454004288,1,w,351.93046999,,,,,,,,,,,,,,,,,,,,,,,,,,,,,,,,2015_Jun_17_1555,60.0997864993,LearningTask,,989,
200,s,-200,,,,,,,,,,,,,,,,,0,0,0,0,17,0,68,2,,,,,,,,,,,,,,,,,,,,,,s,1,0.651066064835,None,0,2.0,,,,,,,,,,,,,,,,,,,,,,,,0,0.51309800148,0.00111198425293,0.651066064835,1,s,354.931531191,,,,,,,,,,,,,,,,,,,,,,,,,,,,,,,,2015_Jun_17_1555,60.0997864993,LearningTask,,989,
-200,q,200,,,,,,,,,,,,,,,,,0,0,0,0,17,1,69,1,,,,,,,,,,,,,,,,,,,,,,q,1,0.567268133163,None,0,4.0,,,,,,,,,,,,,,,,,,,,,,,,4.05,0.512363910675,0.00120878219604,0.567268133163,1,q,357.931402206,,,,,,,,,,,,,,,,,,,,,,,,,,,,,,,,2015_Jun_17_1555,60.0997864993,LearningTask,,989,
-200,q,200,,,,,,,,,,,,,,,,,0,0,0,0,17,2,70,1,,,,,,,,,,,,,,,,,,,,,,q,1,0.950700998306,None,0,0.5,,,,,,,,,,,,,,,,,,,,,,,,0.29,0.512549877167,0.00125908851624,0.950700998306,1,q,360.931913137,,,,,,,,,,,,,,,,,,,,,,,,,,,,,,,,2015_Jun_17_1555,60.0997864993,LearningTask,,989,
200,s,-200,,,,,,,,,,,,,,,,,0,0,0,0,17,3,71,2,,,,,,,,,,,,,,,,,,,,,,s,1,0.367518901825,None,0,0.5,,,,,,,,,,,,,,,,,,,,,,,,0.29,0.511770963669,0.00122308731079,[],0,None,363.93200016,0.29,0.513861894608,0.00145602226257,[],0,None,366.93278718,0.175773859024,0.75,0.513154983521,0.00123715400696,0.367518901825,1,s,369.932501078,,,,,,,,,,,,,,,,,2015_Jun_17_1555,60.0997864993,LearningTask,,989,
200,s,-200,,,,,,,,,,,,,,,,,0,0,0,0,18,0,72,2,,,,,,,,,,,,,,,,,,,,,,s,1,0.367844820023,None,0,0.5,,,,,,,,,,,,,,,,,,,,,,,,0.65,0.511975049973,0.00119304656982,0.367844820023,1,s,372.932965994,,,,,,,,,,,,,,,,,,,,,,,,,,,,,,,,2015_Jun_17_1555,60.0997864993,LearningTask,,989,
-200,q,200,,,,,,,,,,,,,,,,,0,0,0,0,18,1,73,1,,,,,,,,,,,,,,,,,,,,,,q,1,0.434353113174,None,0,4.0,,,,,,,,,,,,,,,,,,,,,,,,4.18,0.511882066727,0.00123715400696,0.434353113174,1,q,375.933059216,,,,,,,,,,,,,,,,,,,,,,,,,,,,,,,,2015_Jun_17_1555,60.0997864993,LearningTask,,989,
200,s,-200,,,,,,,,,,,,,,,,,0,0,0,0,18,2,74,2,,,,,,,,,,,,,,,,,,,,,,s,1,0.650977134705,None,0,4.0,,,,,,,,,,,,,,,,,,,,,,,,4.06,0.512119054794,0.0011990070343,0.650977134705,1,s,378.933160067,,,,,,,,,,,,,,,,,,,,,,,,,,,,,,,,2015_Jun_17_1555,60.0997864993,LearningTask,,989,
200,w,200,,,,,,,,,,,,,,,,,0,0,0,0,18,3,75,0,,,,,,,,,,,,,,,,,,,,,,w,1,0.350692987442,None,0,4.0,,,,,,,,,,,,,,,,,,,,,,,,4.06,0.512238025665,0.0012059211731,0.451121091843,0,s,381.933387995,3.94,0.513450860977,0.00132989883423,0.350692987442,1,w,384.933709145,,,,,,,,,,,,,,,,,,,,,,,,,2015_Jun_17_1555,60.0997864993,LearningTask,,989,
200,w,200,,,,,,,,,,,,,,,,,0,0,0,0,19,0,76,0,,,,,,,,,,,,,,,,,,,,,,w,1,0.51754784584,None,0,4.0,,,,,,,,,,,,,,,,,,,,,,,,3.94,0.512181997299,0.00120496749878,0.417054176331,0,s,387.933716059,3.91,0.513722896576,0.00144004821777,0.51754784584,1,w,390.933140993,,,,,,,,,,,,,,,,,,,,,,,,,2015_Jun_17_1555,60.0997864993,LearningTask,,989,
-200,a,-200,,,,,,,,,,,,,,,,,0,0,0,0,19,1,77,3,,,,,,,,,,,,,,,,,,,,,,a,1,0.317597866058,None,0,1.0,,,,,,,,,,,,,,,,,,,,,,,,3.91,0.51344203949,0.00133514404297,0.484236955643,0,w,393.934091091,0.96,0.513963222504,0.00124406814575,0.317597866058,1,a,396.934594154,,,,,,,,,,,,,,,,,,,,,,,,,2015_Jun_17_1555,60.0997864993,LearningTask,,989,
200,s,-200,,,,,,,,,,,,,,,,,0,0,0,0,19,2,78,2,,,,,,,,,,,,,,,,,,,,,,s,1,0.567145109177,None,0,1.0,,,,,,,,,,,,,,,,,,,,,,,,1.09,0.511788129807,0.00168514251709,0.567145109177,1,s,399.933881998,,,,,,,,,,,,,,,,,,,,,,,,,,,,,,,,2015_Jun_17_1555,60.0997864993,LearningTask,,989,
-200,q,200,,,,,,,,,,,,,,,,,0,0,0,0,19,3,79,1,,,,,,,,,,,,,,,,,,,,,,q,1,0.450994968414,None,0,2.0,,,,,,,,,,,,,,,,,,,,,,,,1.77,0.513015031815,0.00111103057861,0.450994968414,1,q,402.93482399,,,,,,,,,,,,,,,,,,,,,,,,,,,,,,,,2015_Jun_17_1555,60.0997864993,LearningTask,,989,
200,w,200,,,,,,,,,,,,,,,,,0,0,0,0,20,0,80,0,,,,,,,,,,,,,,,,,,,,,,w,1,0.550919055939,None,0,1.0,,,,,,,,,,,,,,,,,,,,,,,,1.25,0.512019872665,0.00127100944519,0.550919055939,1,w,405.934687138,,,,,,,,,,,,,,,,,,,,,,,,,,,,,,,,2015_Jun_17_1555,60.0997864993,LearningTask,,989,
-200,a,-200,,,,,,,,,,,,,,,,,0,0,0,0,20,1,81,3,,,,,,,,,,,,,,,,,,,,,,a,1,0.417611122131,None,0,0.5,,,,,,,,,,,,,,,,,,,,,,,,0.71,0.512587070465,0.00113105773926,0.417611122131,1,a,408.935464144,,,,,,,,,,,,,,,,,,,,,,,,,,,,,,,,2015_Jun_17_1555,60.0997864993,LearningTask,,989,
-200,q,200,,,,,,,,,,,,,,,,,0,0,0,0,20,2,82,1,,,,,,,,,,,,,,,,,,,,,,q,1,0.601290941238,None,0,4.0,,,,,,,,,,,,,,,,,,,,,,,,3.99,0.511950969696,0.00122308731079,0.601290941238,1,q,411.935453176,,,,,,,,,,,,,,,,,,,,,,,,,,,,,,,,2015_Jun_17_1555,60.0997864993,LearningTask,,989,
-200,a,-200,,,,,,,,,,,,,,,,,0,0,0,0,20,3,83,3,,,,,,,,,,,,,,,,,,,,,,a,1,0.500920057297,None,0,1.0,,,,,,,,,,,,,,,,,,,,,,,,0.82,0.51181602478,0.00127291679382,0.500920057297,1,a,414.934954166,,,,,,,,,,,,,,,,,,,,,,,,,,,,,,,,2015_Jun_17_1555,60.0997864993,LearningTask,,989,
200,w,200,,,,,,,,,,,,,,,,,0,0,0,0,21,0,84,0,,,,,,,,,,,,,,,,,,,,,,w,1,0.367660999298,None,0,4.0,,,,,,,,,,,,,,,,,,,,,,,,3.84,0.513037919998,0.0011088848114,0.367660999298,1,w,417.935917139,,,,,,,,,,,,,,,,,,,,,,,,,,,,,,,,2015_Jun_17_1555,60.0997864993,LearningTask,,989,
-200,q,200,,,,,,,,,,,,,,,,,0,0,0,0,21,1,85,1,,,,,,,,,,,,,,,,,,,,,,q,1,0.567534923553,None,0,2.0,,,,,,,,,,,,,,,,,,,,,,,,1.9,0.512022972107,0.00234484672546,0.567534923553,1,q,420.935600996,,,,,,,,,,,,,,,,,,,,,,,,,,,,,,,,2015_Jun_17_1555,60.0997864993,LearningTask,,989,
-200,q,200,,,,,,,,,,,,,,,,,0,0,0,0,21,2,86,1,,,,,,,,,,,,,,,,,,,,,,q,1,0.617758989334,None,0,0.5,,,,,,,,,,,,,,,,,,,,,,,,0.73,0.512612104416,0.0020170211792,0.617758989334,1,q,423.936475992,,,,,,,,,,,,,,,,,,,,,,,,,,,,,,,,2015_Jun_17_1555,60.0997864993,LearningTask,,989,
200,w,200,,,,,,,,,,,,,,,,,0,0,0,0,21,3,87,0,,,,,,,,,,,,,,,,,,,,,,w,1,0.71744799614,None,0,2.0,,,,,,,,,,,,,,,,,,,,,,,,2.17,0.511838912964,0.00124001502991,0.71744799614,1,w,426.936589003,,,,,,,,,,,,,,,,,,,,,,,,,,,,,,,,2015_Jun_17_1555,60.0997864993,LearningTask,,989,
200,w,200,,,,,,,,,,,,,,,,,0,0,0,0,22,0,88,0,,,,,,,,,,,,,,,,,,,,,,w,1,0.567648887634,None,0,1.0,,,,,,,,,,,,,,,,,,,,,,,,0.78,0.51180100441,0.0012309551239,0.567648887634,1,w,429.936737061,,,,,,,,,,,,,,,,,,,,,,,,,,,,,,,,2015_Jun_17_1555,60.0997864993,LearningTask,,989,
-200,q,200,,,,,,,,,,,,,,,,,0,0,0,0,22,1,89,1,,,,,,,,,,,,,,,,,,,,,,q,1,0.41761302948,None,0,4.0,,,,,,,,,,,,,,,,,,,,,,,,4.19,0.512006044388,0.00124406814575,0.41761302948,1,q,432.936976194,,,,,,,,,,,,,,,,,,,,,,,,,,,,,,,,2015_Jun_17_1555,60.0997864993,LearningTask,,989,
200,w,200,,,,,,,,,,,,,,,,,0,0,0,0,22,2,90,0,,,,,,,,,,,,,,,,,,,,,,w,1,0.550557851791,None,0,1.0,,,,,,,,,,,,,,,,,,,,,,,,0,0.512135028839,0.00123000144958,0.550557851791,1,w,435.937048197,,,,,,,,,,,,,,,,,,,,,,,,,,,,,,,,2015_Jun_17_1555,60.0997864993,LearningTask,,989,
200,w,200,,,,,,,,,,,,,,,,,0,0,0,0,22,3,91,0,,,,,,,,,,,,,,,,,,,,,,w,1,0.434442043304,None,0,0.5,,,,,,,,,,,,,,,,,,,,,,,,0,0.51236987114,0.00121188163757,0.434442043304,1,w,438.936571121,,,,,,,,,,,,,,,,,,,,,,,,,,,,,,,,2015_Jun_17_1555,60.0997864993,LearningTask,,989,
-200,q,200,,,,,,,,,,,,,,,,,0,0,0,0,23,0,92,1,,,,,,,,,,,,,,,,,,,,,,q,1,0.467597961426,None,0,1.0,,,,,,,,,,,,,,,,,,,,,,,,0,0.513079881668,0.00104379653931,0.467597961426,1,q,441.93712306,,,,,,,,,,,,,,,,,,,,,,,,,,,,,,,,2015_Jun_17_1555,60.0997864993,LearningTask,,989,
200,s,-200,,,,,,,,,,,,,,,,,0,0,0,0,23,1,93,2,,,,,,,,,,,,,,,,,,,,,,s,1,0.667112112045,None,0,4.0,,,,,,,,,,,,,,,,,,,,,,,,4.05,0.512753009796,0.00108695030212,0.667112112045,1,s,444.936992168,,,,,,,,,,,,,,,,,,,,,,,,,,,,,,,,2015_Jun_17_1555,60.0997864993,LearningTask,,989,
200,w,200,,,,,,,,,,,,,,,,,0,0,0,0,23,2,94,0,,,,,,,,,,,,,,,,,,,,,,w,1,0.500638008118,None,0,4.0,,,,,,,,,,,,,,,,,,,,,,,,3.96,0.512887001038,0.00108003616333,0.500638008118,1,w,447.938274145,,,,,,,,,,,,,,,,,,,,,,,,,,,,,,,,2015_Jun_17_1555,60.0997864993,LearningTask,,989,
-200,q,200,,,,,,,,,,,,,,,,,0,0,0,0,23,3,95,1,,,,,,,,,,,,,,,,,,,,,,q,1,0.400676012039,None,0,1.0,,,,,,,,,,,,,,,,,,,,,,,,1.15,0.511608123779,0.00121212005615,0.400676012039,1,q,450.938407183,,,,,,,,,,,,,,,,,,,,,,,,,,,,,,,,2015_Jun_17_1555,60.0997864993,LearningTask,,989,
-200,q,200,,,,,,,,,,,,,,,,,0,0,0,0,24,0,96,1,,,,,,,,,,,,,,,,,,,,,,q,1,0.467321872711,None,0,0.5,,,,,,,,,,,,,,,,,,,,,,,,0.38,0.511810064316,0.00118708610535,0.467321872711,1,q,453.93841815,,,,,,,,,,,,,,,,,,,,,,,,,,,,,,,,2015_Jun_17_1555,60.0997864993,LearningTask,,989,
200,w,200,,,,,,,,,,,,,,,,,0,0,0,0,24,1,97,0,,,,,,,,,,,,,,,,,,,,,,w,1,0.617739915848,None,0,0.5,,,,,,,,,,,,,,,,,,,,,,,,0.38,0.511450052261,0.00144195556641,[],0,None,456.937863111,0.38,0.514554023743,0.00112199783325,[],0,None,459.938904047,0.576594114304,0.32,0.513353824615,0.00152182579041,0.617739915848,1,w,462.939052105,,,,,,,,,,,,,,,,,2015_Jun_17_1555,60.0997864993,LearningTask,,989,
-200,a,-200,,,,,,,,,,,,,,,,,0,0,0,0,24,2,98,3,,,,,,,,,,,,,,,,,,,,,,a,1,0.517476081848,None,0,1.0,,,,,,,,,,,,,,,,,,,,,,,,1.2,0.512075185776,0.00120806694031,0.517476081848,1,a,465.93957305,,,,,,,,,,,,,,,,,,,,,,,,,,,,,,,,2015_Jun_17_1555,60.0997864993,LearningTask,,989,
200,w,200,,,,,,,,,,,,,,,,,0,0,0,0,24,3,99,0,,,,,,,,,,,,,,,,,,,,,,w,1,0.650938987732,None,0,0.5,,,,,,,,,,,,,,,,,,,,,,,,0,0.511794805527,0.00125098228455,0.650938987732,1,w,468.939477205,,,,,,,,,,,,,,,,,,,,,,,,,,,,,,,,2015_Jun_17_1555,60.0997864993,LearningTask,,989,
,,,,,,,,,,,,,,,,,,,0,0,0,0,,,,,,,,,,,,,,,,,,,,,,,,,,,,,,,,,,,,,,,,,,,,,,,,,,,,,,,,,,,,,,,,,,,,,,,,,,,,,,,,,,,,,,,,,,,9,4.87157011032,2015_Jun_17_1555,60.0997864993,LearningTask,,989,
200,w,200,,,,,,,,,,,,,,,,,1,0,1,0,0,0,0,0,,,,,,,,,,,,,,,,,,,,,,w,1,0.500633001328,None,0,1.0,,,,,,,,,,,,,,,,,,,,,,,,0.86,0.505482912064,0.00118589401245,0.500633001328,1,w,477.607949018,,,,,,,,,,,,,,,,,,,,,,,,,,,,,,,,2015_Jun_17_1555,60.0997864993,LearningTask,,989,
-200,a,-200,,,,,,,,,,,,,,,,,1,0,1,0,0,1,1,3,,,,,,,,,,,,,,,,,,,,,,a,1,0.483961105347,None,0,1.0,,,,,,,,,,,,,,,,,,,,,,,,0.77,0.511110067368,0.00119018554688,0.483961105347,1,a,480.606932163,,,,,,,,,,,,,,,,,,,,,,,,,,,,,,,,2015_Jun_17_1555,60.0997864993,LearningTask,,989,
200,s,-200,,,,,,,,,,,,,,,,,1,0,1,0,0,2,2,2,,,,,,,,,,,,,,,,,,,,,,s,1,0.40038394928,None,0,4.0,,,,,,,,,,,,,,,,,,,,,,,,4.09,0.512229919434,0.00120711326599,0.40038394928,1,s,483.60714221,,,,,,,,,,,,,,,,,,,,,,,,,,,,,,,,2015_Jun_17_1555,60.0997864993,LearningTask,,989,
200,s,-200,,,,,,,,,,,,,,,,,1,0,1,0,0,3,3,2,,,,,,,,,,,,,,,,,,,,,,s,1,0.484280109406,None,0,2.0,,,,,,,,,,,,,,,,,,,,,,,,2.18,0.511558055878,0.00117492675781,0.484280109406,1,s,486.60732317,,,,,,,,,,,,,,,,,,,,,,,,,,,,,,,,2015_Jun_17_1555,60.0997864993,LearningTask,,989,
200,s,-200,,,,,,,,,,,,,,,,,1,0,1,0,1,0,4,2,,,,,,,,,,,,,,,,,,,,,,s,1,0.317443132401,None,0,0.5,,,,,,,,,,,,,,,,,,,,,,,,2.18,0.511704921722,0.00118803977966,[],0,None,489.607547045,0.61,0.51390004158,0.00121402740479,0.317443132401,1,s,492.607496023,,,,,,,,,,,,,,,,,,,,,,,,,2015_Jun_17_1555,60.0997864993,LearningTask,,989,
200,w,200,,,,,,,,,,,,,,,,,1,0,1,0,1,1,5,0,,,,,,,,,,,,,,,,,,,,,,w,1,0.417747974396,q,0,4.0,,,,,,,,,,,,,,,,,,,,,,,,0.61,0.512474060059,0.00107598304749,[],0,None,495.607068062,3.9,0.514845848083,0.000958919525146,0.417747974396,1,w,498.608832121,0.54256606102,,,,,,,,,,,,,,,,,,,,,,,,2015_Jun_17_1555,60.0997864993,LearningTask,,989,
200,w,200,,,,,,,,,,,,,,,,,1,0,1,0,1,2,6,0,,,,,,,,,,,,,,,,,,,,,,w,1,0.467509031296,None,0,4.0,,,,,,,,,,,,,,,,,,,,,,,,4.13,0.511645078659,0.00115895271301,0.467509031296,1,w,501.607256174,,,,,,,,,,,,,,,,,,,,,,,,,,,,,,,,2015_Jun_17_1555,60.0997864993,LearningTask,,989,
200,w,200,,,,,,,,,,,,,,,,,1,0,1,0,1,3,7,0,,,,,,,,,,,,,,,,,,,,,,w,1,0.550843954086,None,0,4.0,,,,,,,,,,,,,,,,,,,,,,,,4.0,0.51376914978,0.00102496147156,0.550843954086,1,w,504.608791113,,,,,,,,,,,,,,,,,,,,,,,,,,,,,,,,2015_Jun_17_1555,60.0997864993,LearningTask,,989,
200,w,200,,,,,,,,,,,,,,,,,1,0,1,0,2,0,8,0,,,,,,,,,,,,,,,,,,,,,,w,1,0.384324073792,None,0,4.0,,,,,,,,,,,,,,,,,,,,,,,,0,0.511374950409,0.0012059211731,0.384324073792,1,w,507.608991146,,,,,,,,,,,,,,,,,,,,,,,,,,,,,,,,2015_Jun_17_1555,60.0997864993,LearningTask,,989,
200,w,200,,,,,,,,,,,,,,,,,1,0,1,0,2,1,9,0,,,,,,,,,,,,,,,,,,,,,,w,1,0.384430885315,None,0,0.5,,,,,,,,,,,,,,,,,,,,,,,,0.42,0.511414051056,0.00120806694031,0.384430885315,1,w,510.608291149,,,,,,,,,,,,,,,,,,,,,,,,,,,,,,,,2015_Jun_17_1555,60.0997864993,LearningTask,,989,
200,w,200,,,,,,,,,,,,,,,,,1,0,1,0,2,2,10,0,,,,,,,,,,,,,,,,,,,,,,w,1,0.484539031982,None,0,1.0,,,,,,,,,,,,,,,,,,,,,,,,0.97,0.512705087662,0.00126504898071,0.484539031982,1,w,513.609381199,,,,,,,,,,,,,,,,,,,,,,,,,,,,,,,,2015_Jun_17_1555,60.0997864993,LearningTask,,989,
-200,a,-200,,,,,,,,,,,,,,,,,1,0,1,0,2,3,11,3,,,,,,,,,,,,,,,,,,,,,,a,1,0.367192029953,None,0,2.0,,,,,,,,,,,,,,,,,,,,,,,,0.97,0.511846065521,0.0011739730835,[],0,None,516.609131098,2.11,0.514099121094,0.00121712684631,0.367192029953,1,a,519.609578133,0.109106063843,,,,,,,,,,,,,,,,,,,,,,,,2015_Jun_17_1555,60.0997864993,LearningTask,,989,
200,s,-200,,,,,,,,,,,,,,,,,1,0,1,0,3,0,12,2,,,,,,,,,,,,,,,,,,,,,,s,1,0.484372854233,None,0,2.0,,,,,,,,,,,,,,,,,,,,,,,,2.1,0.511781930923,0.00119185447693,0.484372854233,1,s,522.609742165,,,,,,,,,,,,,,,,,,,,,,,,,,,,,,,,2015_Jun_17_1555,60.0997864993,LearningTask,,989,
200,w,200,,,,,,,,,,,,,,,,,1,0,1,0,3,1,13,0,,,,,,,,,,,,,,,,,,,,,,w,1,0.401077032089,None,0,4.0,,,,,,,,,,,,,,,,,,,,,,,,0,0.511806964874,0.00121593475342,0.401077032089,1,w,525.610409021,,,,,,,,,,,,,,,,,,,,,,,,,,,,,,,,2015_Jun_17_1555,60.0997864993,LearningTask,,989,
200,w,200,,,,,,,,,,,,,,,,,1,0,1,0,3,2,14,0,,,,,,,,,,,,,,,,,,,,,,w,1,0.684186935425,None,0,2.0,,,,,,,,,,,,,,,,,,,,,,,,1.85,0.511653900146,0.0012149810791,0.684186935425,1,w,528.61039114,,,,,,,,,,,,,,,,,,,,,,,,,,,,,,,,2015_Jun_17_1555,60.0997864993,LearningTask,,989,
-200,a,-200,,,,,,,,,,,,,,,,,1,0,1,0,3,3,15,3,,,,,,,,,,,,,,,,,,,,,,a,1,0.51739692688,None,0,1.0,,,,,,,,,,,,,,,,,,,,,,,,0,0.511773824692,0.00119185447693,0.51739692688,1,a,531.610530138,,,,,,,,,,,,,,,,,,,,,,,,,,,,,,,,2015_Jun_17_1555,60.0997864993,LearningTask,,989,
200,s,-200,,,,,,,,,,,,,,,,,1,0,1,0,4,0,16,2,,,,,,,,,,,,,,,,,,,,,,s,1,0.633892059326,None,0,0.5,,,,,,,,,,,,,,,,,,,,,,,,0.59,0.512146949768,0.0012309551239,0.633892059326,1,s,534.610779047,,,,,,,,,,,,,,,,,,,,,,,,,,,,,,,,2015_Jun_17_1555,60.0997864993,LearningTask,,989,
-200,a,-200,,,,,,,,,,,,,,,,,1,0,1,0,4,1,17,3,,,,,,,,,,,,,,,,,,,,,,a,1,0.534213066101,None,0,2.0,,,,,,,,,,,,,,,,,,,,,,,,1.92,0.511942148209,0.00117301940918,0.534213066101,1,a,537.611087084,,,,,,,,,,,,,,,,,,,,,,,,,,,,,,,,2015_Jun_17_1555,60.0997864993,LearningTask,,989,
-200,q,200,,,,,,,,,,,,,,,,,1,0,1,0,4,2,18,1,,,,,,,,,,,,,,,,,,,,,,q,1,0.701377153397,None,0,2.0,,,,,,,,,,,,,,,,,,,,,,,,2.06,0.511247873306,0.00117993354797,0.701377153397,1,q,540.611232996,,,,,,,,,,,,,,,,,,,,,,,,,,,,,,,,2015_Jun_17_1555,60.0997864993,LearningTask,,989,
-200,q,200,,,,,,,,,,,,,,,,,1,0,1,0,4,3,19,1,,,,,,,,,,,,,,,,,,,,,,q,1,0.68421792984,None,0,0.5,,,,,,,,,,,,,,,,,,,,,,,,0.45,0.511900901794,0.00119495391846,0.68421792984,1,q,543.61049819,,,,,,,,,,,,,,,,,,,,,,,,,,,,,,,,2015_Jun_17_1555,60.0997864993,LearningTask,,989,
200,s,-200,,,,,,,,,,,,,,,,,1,0,1,0,5,0,20,2,,,,,,,,,,,,,,,,,,,,,,s,1,0.834267139435,None,0,0.5,,,,,,,,,,,,,,,,,,,,,,,,0.68,0.513044834137,0.00105905532837,0.834267139435,1,s,546.610595226,,,,,,,,,,,,,,,,,,,,,,,,,,,,,,,,2015_Jun_17_1555,60.0997864993,LearningTask,,989,
200,w,200,,,,,,,,,,,,,,,,,1,0,1,0,5,1,21,0,,,,,,,,,,,,,,,,,,,,,,w,1,0.950880050659,None,0,2.0,,,,,,,,,,,,,,,,,,,,,,,,1.93,0.51353096962,0.000877857208252,0.950880050659,1,w,549.610976219,,,,,,,,,,,,,,,,,,,,,,,,,,,,,,,,2015_Jun_17_1555,60.0997864993,LearningTask,,989,
200,s,-200,,,,,,,,,,,,,,,,,1,0,1,0,5,2,22,2,,,,,,,,,,,,,,,,,,,,,,s,1,0.484050989151,None,0,4.0,,,,,,,,,,,,,,,,,,,,,,,,1.93,0.513005971909,0.00111699104309,[],0,None,552.610943079,1.93,0.514902114868,0.000971078872681,[],0,None,555.610989094,0.825670957565,4.04,0.514860868454,0.00112581253052,0.484050989151,1,s,558.611544132,,,,,,,,,,,,,,,,,2015_Jun_17_1555,60.0997864993,LearningTask,,989,
200,w,200,,,,,,,,,,,,,,,,,1,0,1,0,5,3,23,0,,,,,,,,,,,,,,,,,,,,,,w,1,0.467399120331,None,0,1.0,,,,,,,,,,,,,,,,,,,,,,,,1.18,0.513194084167,0.000972986221313,0.467399120331,1,w,561.611868143,,,,,,,,,,,,,,,,,,,,,,,,,,,,,,,,2015_Jun_17_1555,60.0997864993,LearningTask,,989,
200,s,-200,,,,,,,,,,,,,,,,,1,0,1,0,6,0,24,2,,,,,,,,,,,,,,,,,,,,,,s,1,0.417032003403,None,0,2.0,,,,,,,,,,,,,,,,,,,,,,,,2.09,0.513197898865,0.00154399871826,0.417032003403,1,s,564.612938166,,,,,,,,,,,,,,,,,,,,,,,,,,,,,,,,2015_Jun_17_1555,60.0997864993,LearningTask,,989,
200,s,-200,,,,,,,,,,,,,,,,,1,0,1,0,6,1,25,2,,,,,,,,,,,,,,,,,,,,,,s,1,0.53387093544,None,0,0.5,,,,,,,,,,,,,,,,,,,,,,,,0.53,0.511806964874,0.00120997428894,0.53387093544,1,s,567.612017155,,,,,,,,,,,,,,,,,,,,,,,,,,,,,,,,2015_Jun_17_1555,60.0997864993,LearningTask,,989,
-200,q,200,,,,,,,,,,,,,,,,,1,0,1,0,6,2,26,1,,,,,,,,,,,,,,,,,,,,,,q,1,0.467801094055,None,0,4.0,,,,,,,,,,,,,,,,,,,,,,,,3.87,0.513227939606,0.000951051712036,0.467801094055,1,q,570.613400221,,,,,,,,,,,,,,,,,,,,,,,,,,,,,,,,2015_Jun_17_1555,60.0997864993,LearningTask,,989,
200,w,200,,,,,,,,,,,,,,,,,1,0,1,0,6,3,27,0,,,,,,,,,,,,,,,,,,,,,,w,1,0.43408703804,None,0,4.0,,,,,,,,,,,,,,,,,,,,,,,,3.76,0.511473894119,0.00130987167358,0.43408703804,1,w,573.613604069,,,,,,,,,,,,,,,,,,,,,,,,,,,,,,,,2015_Jun_17_1555,60.0997864993,LearningTask,,989,
-200,q,200,,,,,,,,,,,,,,,,,1,0,1,0,7,0,28,1,,,,,,,,,,,,,,,,,,,,,,q,1,0.483934879303,None,0,0.5,,,,,,,,,,,,,,,,,,,,,,,,0,0.511759996414,0.0015709400177,0.483934879303,1,q,576.613214016,,,,,,,,,,,,,,,,,,,,,,,,,,,,,,,,2015_Jun_17_1555,60.0997864993,LearningTask,,989,
200,w,200,,,,,,,,,,,,,,,,,1,0,1,0,7,1,29,0,,,,,,,,,,,,,,,,,,,,,,w,1,0.500846862793,None,0,1.0,,,,,,,,,,,,,,,,,,,,,,,,0.91,0.5126080513,0.00111413002014,0.500846862793,1,w,579.614181995,,,,,,,,,,,,,,,,,,,,,,,,,,,,,,,,2015_Jun_17_1555,60.0997864993,LearningTask,,989,
200,s,-200,,,,,,,,,,,,,,,,,1,0,1,0,7,2,30,2,,,,,,,,,,,,,,,,,,,,,,s,1,0.500854969025,w,0,2.0,,,,,,,,,,,,,,,,,,,,,,,,0,0.511703014374,0.00194215774536,0.500854969025,1,s,582.614001989,,,,,,,,0.405025959015,,,,,,,,,,,,,,,,,,,,,,,,2015_Jun_17_1555,60.0997864993,LearningTask,,989,
-200,q,200,,,,,,,,,,,,,,,,,1,0,1,0,7,3,31,1,,,,,,,,,,,,,,,,,,,,,,q,1,0.534237861633,None,0,0.5,,,,,,,,,,,,,,,,,,,,,,,,0.39,0.512115001678,0.00119400024414,0.534237861633,1,q,585.614194155,,,,,,,,,,,,,,,,,,,,,,,,,,,,,,,,2015_Jun_17_1555,60.0997864993,LearningTask,,989,
-200,q,200,,,,,,,,,,,,,,,,,1,0,1,0,8,0,32,1,,,,,,,,,,,,,,,,,,,,,,q,1,0.717283010483,None,0,0.5,,,,,,,,,,,,,,,,,,,,,,,,0.66,0.51229095459,0.00152587890625,0.717283010483,1,q,588.614431143,,,,,,,,,,,,,,,,,,,,,,,,,,,,,,,,2015_Jun_17_1555,60.0997864993,LearningTask,,989,
-200,a,-200,,,,,,,,,,,,,,,,,1,0,1,0,8,1,33,3,,,,,,,,,,,,,,,,,,,,,,a,1,0.61741900444,None,0,1.0,,,,,,,,,,,,,,,,,,,,,,,,1.09,0.512022972107,0.00119400024414,0.61741900444,1,a,591.614523172,,,,,,,,,,,,,,,,,,,,,,,,,,,,,,,,2015_Jun_17_1555,60.0997864993,LearningTask,,989,
-200,q,200,,,,,,,,,,,,,,,,,1,0,1,0,8,2,34,1,,,,,,,,,,,,,,,,,,,,,,q,1,0.234312057495,None,0,1.0,,,,,,,,,,,,,,,,,,,,,,,,1.09,0.51233291626,0.00117492675781,0.617363929749,0,w,594.615285158,0,0.513128995895,0.00146913528442,0.234312057495,1,q,597.615076065,,,,,,,,,,,,,,,,,,,,,,,,,2015_Jun_17_1555,60.0997864993,LearningTask,,989,
-200,q,200,,,,,,,,,,,,,,,,,1,0,1,0,8,3,35,1,,,,,,,,,,,,,,,,,,,,,,q,1,0.618005990982,None,0,2.0,,,,,,,,,,,,,,,,,,,,,,,,1.86,0.511650085449,0.00123310089111,0.618005990982,1,q,600.615505219,,,,,,,,,,,,,,,,,,,,,,,,,,,,,,,,2015_Jun_17_1555,60.0997864993,LearningTask,,989,
200,s,-200,,,,,,,,,,,,,,,,,1,0,1,0,9,0,36,2,,,,,,,,,,,,,,,,,,,,,,s,1,0.334185123444,None,0,0.5,,,,,,,,,,,,,,,,,,,,,,,,1.86,0.51193022728,0.00118517875671,[],0,None,603.61560607,0.32,0.513821840286,0.00122380256653,0.334185123444,1,s,606.616142035,0.175988197327,,,,,,,,,,,,,,,,,,,,,,,,2015_Jun_17_1555,60.0997864993,LearningTask,,989,
-200,q,200,,,,,,,,,,,,,,,,,1,0,1,0,9,1,37,1,,,,,,,,,,,,,,,,,,,,,,q,1,0.617825031281,None,0,1.0,,,,,,,,,,,,,,,,,,,,,,,,1.06,0.511424064636,0.0011739730835,0.617825031281,1,q,609.615683079,,,,,,,,,,,,,,,,,,,,,,,,,,,,,,,,2015_Jun_17_1555,60.0997864993,LearningTask,,989,
200,s,-200,,,,,,,,,,,,,,,,,1,0,1,0,9,2,38,2,,,,,,,,,,,,,,,,,,,,,,s,1,0.467802047729,None,0,0.5,,,,,,,,,,,,,,,,,,,,,,,,0.63,0.512266874313,0.00119400024414,0.467802047729,1,s,612.616042137,,,,,,,,,,,,,,,,,,,,,,,,,,,,,,,,2015_Jun_17_1555,60.0997864993,LearningTask,,989,
-200,q,200,,,,,,,,,,,,,,,,,1,0,1,0,9,3,39,1,,,,,,,,,,,,,,,,,,,,,,q,1,0.351120948792,None,0,0.5,,,,,,,,,,,,,,,,,,,,,,,,0.25,0.512130022049,0.00118803977966,0.351120948792,1,q,615.616315126,,,,,,,,,,,,,,,,,,,,,,,,,,,,,,,,2015_Jun_17_1555,60.0997864993,LearningTask,,989,
-200,q,200,,,,,,,,,,,,,,,,,1,0,1,0,10,0,40,1,,,,,,,,,,,,,,,,,,,,,,q,1,0.434057950974,None,0,1.0,,,,,,,,,,,,,,,,,,,,,,,,0.25,0.512248039246,0.00119805335999,[],0,None,618.616669178,0,0.513694047928,0.00123596191406,0.434057950974,1,q,621.617012024,,,,,,,,,,,,,,,,,,,,,,,,,2015_Jun_17_1555,60.0997864993,LearningTask,,989,
200,s,-200,,,,,,,,,,,,,,,,,1,0,1,0,10,1,41,2,,,,,,,,,,,,,,,,,,,,,,s,1,0.484786987305,None,0,1.0,,,,,,,,,,,,,,,,,,,,,,,,0,0.511476993561,0.0011990070343,[],0,None,624.617080212,1.23,0.513360977173,0.0014500617981,0.484786987305,1,s,627.61767602,,,,,,,,,,,,,,,,,,,,,,,,,2015_Jun_17_1555,60.0997864993,LearningTask,,989,
-200,q,200,,,,,,,,,,,,,,,,,1,0,1,0,10,2,42,1,,,,,,,,,,,,,,,,,,,,,,q,1,0.684088945389,None,0,4.0,,,,,,,,,,,,,,,,,,,,,,,,3.88,0.511424064636,0.00117897987366,0.684088945389,1,q,630.617328167,,,,,,,,,,,,,,,,,,,,,,,,,,,,,,,,2015_Jun_17_1555,60.0997864993,LearningTask,,989,
-200,a,-200,,,,,,,,,,,,,,,,,1,0,1,0,10,3,43,3,,,,,,,,,,,,,,,,,,,,,,a,1,0.533856868744,None,0,2.0,,,,,,,,,,,,,,,,,,,,,,,,2.15,0.511955022812,0.00119495391846,0.533856868744,1,a,633.617875099,,,,,,,,,,,,,,,,,,,,,,,,,,,,,,,,2015_Jun_17_1555,60.0997864993,LearningTask,,989,
200,s,-200,,,,,,,,,,,,,,,,,1,0,1,0,11,0,44,2,,,,,,,,,,,,,,,,,,,,,,s,1,0.634415864944,None,0,2.0,,,,,,,,,,,,,,,,,,,,,,,,1.95,0.511750936508,0.00119400024414,0.634415864944,1,s,636.617752075,,,,,,,,,,,,,,,,,,,,,,,,,,,,,,,,2015_Jun_17_1555,60.0997864993,LearningTask,,989,
200,s,-200,,,,,,,,,,,,,,,,,1,0,1,0,11,1,45,2,,,,,,,,,,,,,,,,,,,,,,s,1,0.600575208664,None,0,1.0,,,,,,,,,,,,,,,,,,,,,,,,0.81,0.511667966843,0.00118088722229,0.600575208664,1,s,639.617145061,,,,,,,,,,,,,,,,,,,,,,,,,,,,,,,,2015_Jun_17_1555,60.0997864993,LearningTask,,989,
-200,a,-200,,,,,,,,,,,,,,,,,1,0,1,0,11,2,46,3,,,,,,,,,,,,,,,,,,,,,,a,1,0.684314012527,None,0,0.5,,,,,,,,,,,,,,,,,,,,,,,,0,0.513215065002,0.00119519233704,0.684314012527,1,a,642.618400097,,,,,,,,,,,,,,,,,,,,,,,,,,,,,,,,2015_Jun_17_1555,60.0997864993,LearningTask,,989,
-200,q,200,,,,,,,,,,,,,,,,,1,0,1,0,11,3,47,1,,,,,,,,,,,,,,,,,,,,,,q,1,0.750787973404,None,0,0.5,,,,,,,,,,,,,,,,,,,,,,,,0.28,0.512021780014,0.00173187255859,0.750787973404,1,q,645.618540049,,,,,,,,,,,,,,,,,,,,,,,,,,,,,,,,2015_Jun_17_1555,60.0997864993,LearningTask,,989,
200,w,200,,,,,,,,,,,,,,,,,1,0,1,0,12,0,48,0,,,,,,,,,,,,,,,,,,,,,,w,1,0.617388963699,None,0,2.0,,,,,,,,,,,,,,,,,,,,,,,,2.2,0.512073993683,0.00133800506592,0.617388963699,1,w,648.618674994,,,,,,,,,,,,,,,,,,,,,,,,,,,,,,,,2015_Jun_17_1555,60.0997864993,LearningTask,,989,
200,w,200,,,,,,,,,,,,,,,,,1,0,1,0,12,1,49,0,,,,,,,,,,,,,,,,,,,,,,w,1,0.584192991257,None,0,4.0,,,,,,,,,,,,,,,,,,,,,,,,2.2,0.511621952057,0.00119304656982,[],0,None,651.618733168,2.2,0.513768196106,0.00121116638184,[],0,None,654.618637085,,0,0.514238834381,0.00122094154358,0.584192991257,1,w,657.618485212,,,,,,,,,,,,,,,,,2015_Jun_17_1555,60.0997864993,LearningTask,,989,
-200,q,200,,,,,,,,,,,,,,,,,1,0,1,0,12,2,50,1,,,,,,,,,,,,,,,,,,,,,,q,1,0.584151029587,None,0,1.0,,,,,,,,,,,,,,,,,,,,,,,,0.91,0.513019800186,0.00114393234253,0.584151029587,1,q,660.618557215,,,,,,,,,,,,,,,,,,,,,,,,,,,,,,,,2015_Jun_17_1555,60.0997864993,LearningTask,,989,
-200,a,-200,,,,,,,,,,,,,,,,,1,0,1,0,12,3,51,3,,,,,,,,,,,,,,,,,,,,,,a,1,0.56710600853,None,0,0.5,,,,,,,,,,,,,,,,,,,,,,,,0.54,0.513209104538,0.00111508369446,0.56710600853,1,a,663.619731188,,,,,,,,,,,,,,,,,,,,,,,,,,,,,,,,2015_Jun_17_1555,60.0997864993,LearningTask,,989,
200,w,200,,,,,,,,,,,,,,,,,1,0,1,0,13,0,52,0,,,,,,,,,,,,,,,,,,,,,,w,1,0.550866127014,None,0,1.0,,,,,,,,,,,,,,,,,,,,,,,,1.23,0.511906147003,0.00119400024414,0.550866127014,1,w,666.618756056,,,,,,,,,,,,,,,,,,,,,,,,,,,,,,,,2015_Jun_17_1555,60.0997864993,LearningTask,,989,
200,s,-200,,,,,,,,,,,,,,,,,1,0,1,0,13,1,53,2,,,,,,,,,,,,,,,,,,,,,,s,1,0.583590984344,None,0,4.0,,,,,,,,,,,,,,,,,,,,,,,,4.06,0.513854026794,0.00106596946716,0.583590984344,1,s,669.619094133,,,,,,,,,,,,,,,,,,,,,,,,,,,,,,,,2015_Jun_17_1555,60.0997864993,LearningTask,,989,
-200,a,-200,,,,,,,,,,,,,,,,,1,0,1,0,13,2,54,3,,,,,,,,,,,,,,,,,,,,,,a,1,0.567597866058,None,0,0.5,,,,,,,,,,,,,,,,,,,,,,,,4.06,0.513664960861,0.000906944274902,[],0,None,672.619401217,0.71,0.514739990234,0.00112104415894,0.567597866058,1,a,675.620554209,0.458507061005,,,,,,,,,,,,,,,,,,,,,,,,2015_Jun_17_1555,60.0997864993,LearningTask,,989,
200,s,-200,,,,,,,,,,,,,,,,,1,0,1,0,13,3,55,2,,,,,,,,,,,,,,,,,,,,,,s,1,0.700836896896,None,0,4.0,,,,,,,,,,,,,,,,,,,,,,,,0,0.511839866638,0.00124001502991,0.700836896896,1,s,678.620429039,,,,,,,,,,,,,,,,,,,,,,,,,,,,,,,,2015_Jun_17_1555,60.0997864993,LearningTask,,989,
200,s,-200,,,,,,,,,,,,,,,,,1,0,1,0,14,0,56,2,,,,,,,,,,,,,,,,,,,,,,s,1,0.584156990051,None,0,1.0,,,,,,,,,,,,,,,,,,,,,,,,1.06,0.512629032135,0.0011830329895,0.584156990051,1,s,681.62018013,,,,,,,,,,,,,,,,,,,,,,,,,,,,,,,,2015_Jun_17_1555,60.0997864993,LearningTask,,989,
200,s,-200,,,,,,,,,,,,,,,,,1,0,1,0,14,1,57,2,,,,,,,,,,,,,,,,,,,,,,s,1,0.550696134567,None,0,2.0,,,,,,,,,,,,,,,,,,,,,,,,1.78,0.513557910919,0.000897884368896,0.550696134567,1,s,684.621134996,,,,,,,,,,,,,,,,,,,,,,,,,,,,,,,,2015_Jun_17_1555,60.0997864993,LearningTask,,989,
-200,a,-200,,,,,,,,,,,,,,,,,1,0,1,0,14,2,58,3,,,,,,,,,,,,,,,,,,,,,,a,1,0.917693138123,None,0,2.0,,,,,,,,,,,,,,,,,,,,,,,,0,0.512046098709,0.00119590759277,0.917693138123,1,a,687.620428085,,,,,,,,,,,,,,,,,,,,,,,,,,,,,,,,2015_Jun_17_1555,60.0997864993,LearningTask,,989,
-200,a,-200,,,,,,,,,,,,,,,,,1,0,1,0,14,3,59,3,,,,,,,,,,,,,,,,,,,,,,a,1,0.334263086319,None,0,1.0,,,,,,,,,,,,,,,,,,,,,,,,0.92,0.513710021973,0.000951051712036,0.334263086319,1,a,690.621526003,,,,,,,,,,,,,,,,,,,,,,,,,,,,,,,,2015_Jun_17_1555,60.0997864993,LearningTask,,989,
-200,a,-200,,,,,,,,,,,,,,,,,1,0,1,0,15,0,60,3,,,,,,,,,,,,,,,,,,,,,,a,1,0.784216880798,None,0,4.0,,,,,,,,,,,,,,,,,,,,,,,,4.01,0.511866807938,0.0012059211731,0.784216880798,1,a,693.621801138,,,,,,,,,,,,,,,,,,,,,,,,,,,,,,,,2015_Jun_17_1555,60.0997864993,LearningTask,,989,
-200,a,-200,,,,,,,,,,,,,,,,,1,0,1,0,15,1,61,3,,,,,,,,,,,,,,,,,,,,,,a,1,0.600955963135,None,0,1.0,,,,,,,,,,,,,,,,,,,,,,,,0,0.511391162872,0.00119709968567,0.600955963135,1,a,696.62155509,,,,,,,,,,,,,,,,,,,,,,,,,,,,,,,,2015_Jun_17_1555,60.0997864993,LearningTask,,989,
-200,q,200,,,,,,,,,,,,,,,,,1,0,1,0,15,2,62,1,,,,,,,,,,,,,,,,,,,,,,q,1,0.716873884201,None,0,4.0,,,,,,,,,,,,,,,,,,,,,,,,0,0.512452125549,0.00120711326599,0.401271820068,0,a,699.622187138,0,0.513711929321,0.00147795677185,0.716873884201,1,q,702.622517109,,,,,,,,,,,,,,,,,,,,,,,,,2015_Jun_17_1555,60.0997864993,LearningTask,,989,
-200,q,200,,,,,,,,,,,,,,,,,1,0,1,0,15,3,63,1,,,,,,,,,,,,,,,,,,,,,,q,1,0.567346096039,None,0,4.0,,,,,,,,,,,,,,,,,,,,,,,,3.91,0.511546134949,0.00121212005615,0.567346096039,1,q,705.621617079,,,,,,,,,,,,,,,,,,,,,,,,,,,,,,,,2015_Jun_17_1555,60.0997864993,LearningTask,,989,
-200,q,200,,,,,,,,,,,,,,,,,1,0,1,0,16,0,64,1,,,,,,,,,,,,,,,,,,,,,,q,1,0.883927106857,None,0,2.0,,,,,,,,,,,,,,,,,,,,,,,,2.18,0.513922929764,0.000936985015869,0.883927106857,1,q,708.62315321,,,,,,,,,,,,,,,,,,,,,,,,,,,,,,,,2015_Jun_17_1555,60.0997864993,LearningTask,,989,
200,w,200,,,,,,,,,,,,,,,,,1,0,1,0,16,1,65,0,,,,,,,,,,,,,,,,,,,,,,w,1,0.934147834778,None,0,0.5,,,,,,,,,,,,,,,,,,,,,,,,0.57,0.511518955231,0.00117707252502,0.934147834778,1,w,711.623036146,,,,,,,,,,,,,,,,,,,,,,,,,,,,,,,,2015_Jun_17_1555,60.0997864993,LearningTask,,989,
-200,q,200,,,,,,,,,,,,,,,,,1,0,1,0,16,2,66,1,,,,,,,,,,,,,,,,,,,,,,q,1,0.96754693985,None,0,4.0,,,,,,,,,,,,,,,,,,,,,,,,4.17,0.512189149857,0.00117897987366,0.96754693985,1,q,714.622438192,,,,,,,,,,,,,,,,,,,,,,,,,,,,,,,,2015_Jun_17_1555,60.0997864993,LearningTask,,989,
200,w,200,,,,,,,,,,,,,,,,,1,0,1,0,16,3,67,0,,,,,,,,,,,,,,,,,,,,,,w,1,0.517773151398,None,0,4.0,,,,,,,,,,,,,,,,,,,,,,,,4.15,0.512763023376,0.0012469291687,0.517773151398,1,w,717.623391151,,,,,,,,,,,,,,,,,,,,,,,,,,,,,,,,2015_Jun_17_1555,60.0997864993,LearningTask,,989,
200,s,-200,,,,,,,,,,,,,,,,,1,0,1,0,17,0,68,2,,,,,,,,,,,,,,,,,,,,,,s,1,0.533988952637,None,0,0.5,,,,,,,,,,,,,,,,,,,,,,,,0.67,0.51223897934,0.00117206573486,0.533988952637,1,s,720.623676062,,,,,,,,,,,,,,,,,,,,,,,,,,,,,,,,2015_Jun_17_1555,60.0997864993,LearningTask,,989,
200,w,200,,,,,,,,,,,,,,,,,1,0,1,0,17,1,69,0,,,,,,,,,,,,,,,,,,,,,,w,1,0.53443980217,None,0,0.5,,,,,,,,,,,,,,,,,,,,,,,,0.66,0.511826038361,0.00119304656982,0.53443980217,1,w,723.624023199,,,,,,,,,,,,,,,,,,,,,,,,,,,,,,,,2015_Jun_17_1555,60.0997864993,LearningTask,,989,
200,s,-200,,,,,,,,,,,,,,,,,1,0,1,0,17,2,70,2,,,,,,,,,,,,,,,,,,,,,,s,1,0.48435997963,None,0,1.0,,,,,,,,,,,,,,,,,,,,,,,,0.83,0.512027025223,0.0012059211731,0.48435997963,1,s,726.624031067,,,,,,,,,,,,,,,,,,,,,,,,,,,,,,,,2015_Jun_17_1555,60.0997864993,LearningTask,,989,
-200,q,200,,,,,,,,,,,,,,,,,1,0,1,0,17,3,71,1,,,,,,,,,,,,,,,,,,,,,,q,1,0.651252985001,None,0,4.0,,,,,,,,,,,,,,,,,,,,,,,,3.97,0.512058973312,0.00120902061462,0.651252985001,1,q,729.624559164,,,,,,,,,,,,,,,,,,,,,,,,,,,,,,,,2015_Jun_17_1555,60.0997864993,LearningTask,,989,
-200,a,-200,,,,,,,,,,,,,,,,,1,0,1,0,18,0,72,3,,,,,,,,,,,,,,,,,,,,,,a,1,0.850836038589,None,0,2.0,,,,,,,,,,,,,,,,,,,,,,,,1.94,0.511921882629,0.00116086006165,0.850836038589,1,a,732.624588013,,,,,,,,,,,,,,,,,,,,,,,,,,,,,,,,2015_Jun_17_1555,60.0997864993,LearningTask,,989,
-200,a,-200,,,,,,,,,,,,,,,,,1,0,1,0,18,1,73,3,,,,,,,,,,,,,,,,,,,,,,a,1,0.6509308815,None,0,4.0,,,,,,,,,,,,,,,,,,,,,,,,4.15,0.511846065521,0.00117492675781,0.6509308815,1,a,735.624843121,,,,,,,,,,,,,,,,,,,,,,,,,,,,,,,,2015_Jun_17_1555,60.0997864993,LearningTask,,989,
-200,a,-200,,,,,,,,,,,,,,,,,1,0,1,0,18,2,74,3,,,,,,,,,,,,,,,,,,,,,,a,1,0.500834941864,None,0,2.0,,,,,,,,,,,,,,,,,,,,,,,,4.15,0.511714935303,0.00117993354797,[],0,None,738.624744177,0,0.513766050339,0.0012469291687,0.500834941864,1,a,741.624643087,,,,,,,,,,,,,,,,,,,,,,,,,2015_Jun_17_1555,60.0997864993,LearningTask,,989,
-200,a,-200,,,,,,,,,,,,,,,,,1,0,1,0,18,3,75,3,,,,,,,,,,,,,,,,,,,,,,a,1,0.500848054886,None,0,4.0,,,,,,,,,,,,,,,,,,,,,,,,4.24,0.512570858002,0.00111794471741,0.500848054886,1,a,744.625257015,,,,,,,,,,,,,,,,,,,,,,,,,,,,,,,,2015_Jun_17_1555,60.0997864993,LearningTask,,989,
200,w,200,,,,,,,,,,,,,,,,,1,0,1,0,19,0,76,0,,,,,,,,,,,,,,,,,,,,,,w,1,0.633565187454,None,0,1.0,,,,,,,,,,,,,,,,,,,,,,,,1.25,0.512407064438,0.00189304351807,0.633565187454,1,w,747.625377178,,,,,,,,,,,,,,,,,,,,,,,,,,,,,,,,2015_Jun_17_1555,60.0997864993,LearningTask,,989,
200,s,-200,,,,,,,,,,,,,,,,,1,0,1,0,19,1,77,2,,,,,,,,,,,,,,,,,,,,,,s,1,0.500518083572,None,0,2.0,,,,,,,,,,,,,,,,,,,,,,,,2.1,0.512308835983,0.00135493278503,0.500518083572,1,s,750.624875069,,,,,,,,,,,,,,,,,,,,,,,,,,,,,,,,2015_Jun_17_1555,60.0997864993,LearningTask,,989,
-200,q,200,,,,,,,,,,,,,,,,,1,0,1,0,19,2,78,1,,,,,,,,,,,,,,,,,,,,,,q,1,0.351001977921,None,0,4.0,,,,,,,,,,,,,,,,,,,,,,,,0,0.512983083725,0.0011351108551,0.351001977921,1,q,753.624896049,,,,,,,,,,,,,,,,,,,,,,,,,,,,,,,,2015_Jun_17_1555,60.0997864993,LearningTask,,989,
-200,a,-200,,,,,,,,,,,,,,,,,1,0,1,0,19,3,79,3,,,,,,,,,,,,,,,,,,,,,,a,1,0.500086069107,None,0,4.0,,,,,,,,,,,,,,,,,,,,,,,,4.14,0.513940095901,0.000952959060669,0.500086069107,1,a,756.626528025,,,,,,,,,,,,,,,,,,,,,,,,,,,,,,,,2015_Jun_17_1555,60.0997864993,LearningTask,,989,
-200,a,-200,,,,,,,,,,,,,,,,,1,0,1,0,20,0,80,3,,,,,,,,,,,,,,,,,,,,,,a,1,0.634330034256,None,0,2.0,,,,,,,,,,,,,,,,,,,,,,,,0,0.511756181717,0.00114417076111,0.634330034256,1,a,759.625194073,,,,,,,,,,,,,,,,,,,,,,,,,,,,,,,,2015_Jun_17_1555,60.0997864993,LearningTask,,989,
-200,a,-200,,,,,,,,,,,,,,,,,1,0,1,0,20,1,81,3,,,,,,,,,,,,,,,,,,,,,,a,1,0.550686836243,None,0,0.5,,,,,,,,,,,,,,,,,,,,,,,,0.3,0.513906002045,0.000891923904419,0.550686836243,1,a,762.62670517,,,,,,,,,,,,,,,,,,,,,,,,,,,,,,,,2015_Jun_17_1555,60.0997864993,LearningTask,,989,
-200,a,-200,,,,,,,,,,,,,,,,,1,0,1,0,20,2,82,3,,,,,,,,,,,,,,,,,,,,,,a,1,0.450727939606,None,0,1.0,,,,,,,,,,,,,,,,,,,,,,,,0.92,0.51189494133,0.00110507011414,0.450727939606,1,a,765.626656055,,,,,,,,,,,,,,,,,,,,,,,,,,,,,,,,2015_Jun_17_1555,60.0997864993,LearningTask,,989,
200,w,200,,,,,,,,,,,,,,,,,1,0,1,0,20,3,83,0,,,,,,,,,,,,,,,,,,,,,,w,1,0.484379053116,None,0,1.0,,,,,,,,,,,,,,,,,,,,,,,,0.79,0.512192964554,0.00117802619934,0.484379053116,1,w,768.626175165,,,,,,,,,,,,,,,,,,,,,,,,,,,,,,,,2015_Jun_17_1555,60.0997864993,LearningTask,,989,
200,w,200,,,,,,,,,,,,,,,,,1,0,1,0,21,0,84,0,,,,,,,,,,,,,,,,,,,,,,w,1,0.467175960541,None,0,1.0,,,,,,,,,,,,,,,,,,,,,,,,1.08,0.513240098953,0.00106501579285,0.467175960541,1,w,771.627243996,,,,,,,,,,,,,,,,,,,,,,,,,,,,,,,,2015_Jun_17_1555,60.0997864993,LearningTask,,989,
200,w,200,,,,,,,,,,,,,,,,,1,0,1,0,21,1,85,0,,,,,,,,,,,,,,,,,,,,,,w,1,0.60059094429,None,0,1.0,,,,,,,,,,,,,,,,,,,,,,,,0.78,0.512032985687,0.00118613243103,0.60059094429,1,w,774.627632141,,,,,,,,,,,,,,,,,,,,,,,,,,,,,,,,2015_Jun_17_1555,60.0997864993,LearningTask,,989,
-200,q,200,,,,,,,,,,,,,,,,,1,0,1,0,21,2,86,1,,,,,,,,,,,,,,,,,,,,,,q,1,0.434027910233,None,0,1.0,,,,,,,,,,,,,,,,,,,,,,,,0.8,0.51155591011,0.00127506256104,0.434027910233,1,q,777.627897024,,,,,,,,,,,,,,,,,,,,,,,,,,,,,,,,2015_Jun_17_1555,60.0997864993,LearningTask,,989,
-200,q,200,,,,,,,,,,,,,,,,,1,0,1,0,21,3,87,1,,,,,,,,,,,,,,,,,,,,,,q,1,0.41743016243,None,0,0.5,,,,,,,,,,,,,,,,,,,,,,,,0.44,0.511917114258,0.00118899345398,0.41743016243,1,q,780.62788415,,,,,,,,,,,,,,,,,,,,,,,,,,,,,,,,2015_Jun_17_1555,60.0997864993,LearningTask,,989,
200,w,200,,,,,,,,,,,,,,,,,1,0,1,0,22,0,88,0,,,,,,,,,,,,,,,,,,,,,,w,1,0.434405088425,None,0,4.0,,,,,,,,,,,,,,,,,,,,,,,,0.44,0.512102127075,0.00122308731079,[],0,None,783.628329039,4.06,0.513381958008,0.0012309551239,0.434405088425,1,w,786.628428221,,,,,,,,,,,,,,,,,,,,,,,,,2015_Jun_17_1555,60.0997864993,LearningTask,,989,
200,s,-200,,,,,,,,,,,,,,,,,1,0,1,0,22,1,89,2,,,,,,,,,,,,,,,,,,,,,,s,1,0.950903892517,None,0,4.0,,,,,,,,,,,,,,,,,,,,,,,,4.06,0.511549949646,0.00124502182007,[],0,None,789.628275156,3.92,0.513644933701,0.00125479698181,0.950903892517,1,s,792.628566027,,,,,,,,,,,,,,,,,,,,,,,,,2015_Jun_17_1555,60.0997864993,LearningTask,,989,
-200,q,200,,,,,,,,,,,,,,,,,1,0,1,0,22,2,90,1,,,,,,,,,,,,,,,,,,,,,,q,1,0.233592033386,None,0,0.5,,,,,,,,,,,,,,,,,,,,,,,,3.92,0.511223077774,0.00122022628784,[],0,None,795.628745079,0.74,0.513798952103,0.00123500823975,0.233592033386,1,q,798.629043102,0.745835065842,,,,,,,,,,,,,,,,,,,,,,,,2015_Jun_17_1555,60.0997864993,LearningTask,,989,
200,s,-200,,,,,,,,,,,,,,,,,1,0,1,0,22,3,91,2,,,,,,,,,,,,,,,,,,,,,,s,1,0.617367982864,None,0,1.0,,,,,,,,,,,,,,,,,,,,,,,,0,0.512016057968,0.00124907493591,0.617367982864,1,s,801.629247189,,,,,,,,,,,,,,,,,,,,,,,,,,,,,,,,2015_Jun_17_1555,60.0997864993,LearningTask,,989,
-200,a,-200,,,,,,,,,,,,,,,,,1,0,1,0,23,0,92,3,,,,,,,,,,,,,,,,,,,,,,a,1,0.534296989441,None,0,2.0,,,,,,,,,,,,,,,,,,,,,,,,0,0.512310028076,0.00120115280151,[],0,None,804.629518032,0,0.513617038727,0.0012309551239,[],0,None,807.62967515,,0,0.513704061508,0.00123596191406,0.534296989441,1,a,810.630000114,,,,,,,,,,,,,,,,,2015_Jun_17_1555,60.0997864993,LearningTask,,989,
-200,q,200,,,,,,,,,,,,,,,,,1,0,1,0,23,1,93,1,,,,,,,,,,,,,,,,,,,,,,q,1,0.484539031982,None,0,4.0,,,,,,,,,,,,,,,,,,,,,,,,0,0.511933803558,0.00118494033813,[],0,None,813.630300999,0,0.513328790665,0.00122594833374,0.484539031982,1,q,816.630120039,0.175045013428,,,,,,,,,,,,,,,,,,,,,,,,2015_Jun_17_1555,60.0997864993,LearningTask,,989,
-200,q,200,,,,,,,,,,,,,,,,,1,0,1,0,23,2,94,1,,,,,,,,,,,,,,,,,,,,,,q,1,0.784393072128,None,0,2.0,,,,,,,,,,,,,,,,,,,,,,,,0,0.512022972107,0.00108909606934,0.784393072128,1,q,819.630503178,,,,,,,,,,,,,,,,,,,,,,,,,,,,,,,,2015_Jun_17_1555,60.0997864993,LearningTask,,989,
200,w,200,,,,,,,,,,,,,,,,,1,0,1,0,23,3,95,0,,,,,,,,,,,,,,,,,,,,,,w,1,0.500785112381,None,0,2.0,,,,,,,,,,,,,,,,,,,,,,,,2.17,0.512321949005,0.00118708610535,0.500785112381,1,w,822.630217075,,,,,,,,,,,,,,,,,,,,,,,,,,,,,,,,2015_Jun_17_1555,60.0997864993,LearningTask,,989,
-200,a,-200,,,,,,,,,,,,,,,,,1,0,1,0,24,0,96,3,,,,,,,,,,,,,,,,,,,,,,a,1,0.884200811386,None,0,2.0,,,,,,,,,,,,,,,,,,,,,,,,2.17,0.512573957443,0.00113201141357,[],0,None,825.630998135,2.17,0.513651847839,0.0014009475708,[],0,None,828.631352186,0.675493001938,1.99,0.513628959656,0.00135612487793,0.884200811386,1,a,831.631507158,,,,,,,,,,,,,,,,,2015_Jun_17_1555,60.0997864993,LearningTask,,989,
