Color,xPos,location,ShapeStimulus,Shape,yPos,corrAns,ColorLoop.thisRepN,ColorLoop.thisTrialN,ColorLoop.thisN,ColorLoop.thisIndex,practiceTrials.thisRepN,practiceTrials.thisTrialN,practiceTrials.thisN,practiceTrials.thisIndex,ok1.keys,ok1.rt,resp.keys,resp.corr,resp.rt,expName,gender (m/f),age,frameRate,session,date,participant,
magenta,,,,,,,0,0,0,3,,,,,,,,,,LearningTask,,,60.043089318,3,2015_Mar_04_1151,990,
yellow,,,,,,,0,1,1,0,,,,,,,,,,LearningTask,,,60.043089318,3,2015_Mar_04_1151,990,
cyan,,,,,,,0,2,2,6,,,,,,,,,,LearningTask,,,60.043089318,3,2015_Mar_04_1151,990,
blue,,,,,,,0,3,3,7,,,,,,,,,,LearningTask,,,60.043089318,3,2015_Mar_04_1151,990,
green,,,,,,,0,4,4,4,,,,,,,,,,LearningTask,,,60.043089318,3,2015_Mar_04_1151,990,
white,,,,,,,0,5,5,1,,,,,,,,,,LearningTask,,,60.043089318,3,2015_Mar_04_1151,990,
orange,,,,,,,0,6,6,2,,,,,,,,,,LearningTask,,,60.043089318,3,2015_Mar_04_1151,990,
gray,,,,,,,0,7,7,5,,,,,,,,,,LearningTask,,,60.043089318,3,2015_Mar_04_1151,990,
blue,,,,,,,1,0,8,7,,,,,,,,,,LearningTask,,,60.043089318,3,2015_Mar_04_1151,990,
white,,,,,,,1,1,9,1,,,,,,,,,,LearningTask,,,60.043089318,3,2015_Mar_04_1151,990,
green,,,,,,,1,2,10,4,,,,,,,,,,LearningTask,,,60.043089318,3,2015_Mar_04_1151,990,
cyan,,,,,,,1,3,11,6,,,,,,,,,,LearningTask,,,60.043089318,3,2015_Mar_04_1151,990,
yellow,,,,,,,1,4,12,0,,,,,,,,,,LearningTask,,,60.043089318,3,2015_Mar_04_1151,990,
gray,,,,,,,1,5,13,5,,,,,,,,,,LearningTask,,,60.043089318,3,2015_Mar_04_1151,990,
orange,,,,,,,1,6,14,2,,,,,,,,,,LearningTask,,,60.043089318,3,2015_Mar_04_1151,990,
magenta,,,,,,,1,7,15,3,,,,,,,,,,LearningTask,,,60.043089318,3,2015_Mar_04_1151,990,
blue,,,,,,,2,0,16,7,,,,,,,,,,LearningTask,,,60.043089318,3,2015_Mar_04_1151,990,
yellow,,,,,,,2,1,17,0,,,,,,,,,,LearningTask,,,60.043089318,3,2015_Mar_04_1151,990,
gray,,,,,,,2,2,18,5,,,,,,,,,,LearningTask,,,60.043089318,3,2015_Mar_04_1151,990,
white,,,,,,,2,3,19,1,,,,,,,,,,LearningTask,,,60.043089318,3,2015_Mar_04_1151,990,
orange,,,,,,,2,4,20,2,,,,,,,,,,LearningTask,,,60.043089318,3,2015_Mar_04_1151,990,
cyan,,,,,,,2,5,21,6,,,,,,,,,,LearningTask,,,60.043089318,3,2015_Mar_04_1151,990,
green,,,,,,,2,6,22,4,,,,,,,,,,LearningTask,,,60.043089318,3,2015_Mar_04_1151,990,
magenta,,,,,,,2,7,23,3,,,,,,,,,,LearningTask,,,60.043089318,3,2015_Mar_04_1151,990,
magenta,,,,,,,3,0,24,3,,,,,,,,,,LearningTask,,,60.043089318,3,2015_Mar_04_1151,990,
gray,,,,,,,3,1,25,5,,,,,,,,,,LearningTask,,,60.043089318,3,2015_Mar_04_1151,990,
yellow,,,,,,,3,2,26,0,,,,,,,,,,LearningTask,,,60.043089318,3,2015_Mar_04_1151,990,
white,,,,,,,3,3,27,1,,,,,,,,,,LearningTask,,,60.043089318,3,2015_Mar_04_1151,990,
cyan,,,,,,,3,4,28,6,,,,,,,,,,LearningTask,,,60.043089318,3,2015_Mar_04_1151,990,
orange,,,,,,,3,5,29,2,,,,,,,,,,LearningTask,,,60.043089318,3,2015_Mar_04_1151,990,
blue,,,,,,,3,6,30,7,,,,,,,,,,LearningTask,,,60.043089318,3,2015_Mar_04_1151,990,
green,,,,,,,3,7,31,4,,,,,,,,,,LearningTask,,,60.043089318,3,2015_Mar_04_1151,990,
orange,,,,,,,4,0,32,2,,,,,,,,,,LearningTask,,,60.043089318,3,2015_Mar_04_1151,990,
blue,,,,,,,4,1,33,7,,,,,,,,,,LearningTask,,,60.043089318,3,2015_Mar_04_1151,990,
gray,,,,,,,4,2,34,5,,,,,,,,,,LearningTask,,,60.043089318,3,2015_Mar_04_1151,990,
green,,,,,,,4,3,35,4,,,,,,,,,,LearningTask,,,60.043089318,3,2015_Mar_04_1151,990,
cyan,,,,,,,4,4,36,6,,,,,,,,,,LearningTask,,,60.043089318,3,2015_Mar_04_1151,990,
magenta,,,,,,,4,5,37,3,,,,,,,,,,LearningTask,,,60.043089318,3,2015_Mar_04_1151,990,
yellow,,,,,,,4,6,38,0,,,,,,,,,,LearningTask,,,60.043089318,3,2015_Mar_04_1151,990,
white,,,,,,,4,7,39,1,,,,,,,,,,LearningTask,,,60.043089318,3,2015_Mar_04_1151,990,
magenta,,,,,,,5,0,40,3,,,,,,,,,,LearningTask,,,60.043089318,3,2015_Mar_04_1151,990,
white,,,,,,,5,1,41,1,,,,,,,,,,LearningTask,,,60.043089318,3,2015_Mar_04_1151,990,
yellow,,,,,,,5,2,42,0,,,,,,,,,,LearningTask,,,60.043089318,3,2015_Mar_04_1151,990,
cyan,,,,,,,5,3,43,6,,,,,,,,,,LearningTask,,,60.043089318,3,2015_Mar_04_1151,990,
green,,,,,,,5,4,44,4,,,,,,,,,,LearningTask,,,60.043089318,3,2015_Mar_04_1151,990,
gray,,,,,,,5,5,45,5,,,,,,,,,,LearningTask,,,60.043089318,3,2015_Mar_04_1151,990,
orange,,,,,,,5,6,46,2,,,,,,,,,,LearningTask,,,60.043089318,3,2015_Mar_04_1151,990,
blue,,,,,,,5,7,47,7,,,,,,,,,,LearningTask,,,60.043089318,3,2015_Mar_04_1151,990,
gray,,,,,,,6,0,48,5,,,,,,,,,,LearningTask,,,60.043089318,3,2015_Mar_04_1151,990,
blue,,,,,,,6,1,49,7,,,,,,,,,,LearningTask,,,60.043089318,3,2015_Mar_04_1151,990,
green,,,,,,,6,2,50,4,,,,,,,,,,LearningTask,,,60.043089318,3,2015_Mar_04_1151,990,
cyan,,,,,,,6,3,51,6,,,,,,,,,,LearningTask,,,60.043089318,3,2015_Mar_04_1151,990,
white,,,,,,,6,4,52,1,,,,,,,,,,LearningTask,,,60.043089318,3,2015_Mar_04_1151,990,
magenta,,,,,,,6,5,53,3,,,,,,,,,,LearningTask,,,60.043089318,3,2015_Mar_04_1151,990,
yellow,,,,,,,6,6,54,0,,,,,,,,,,LearningTask,,,60.043089318,3,2015_Mar_04_1151,990,
orange,,,,,,,6,7,55,2,,,,,,,,,,LearningTask,,,60.043089318,3,2015_Mar_04_1151,990,
magenta,,,,,,,7,0,56,3,,,,,,,,,,LearningTask,,,60.043089318,3,2015_Mar_04_1151,990,
orange,,,,,,,7,1,57,2,,,,,,,,,,LearningTask,,,60.043089318,3,2015_Mar_04_1151,990,
gray,,,,,,,7,2,58,5,,,,,,,,,,LearningTask,,,60.043089318,3,2015_Mar_04_1151,990,
yellow,,,,,,,7,3,59,0,,,,,,,,,,LearningTask,,,60.043089318,3,2015_Mar_04_1151,990,
blue,,,,,,,7,4,60,7,,,,,,,,,,LearningTask,,,60.043089318,3,2015_Mar_04_1151,990,
green,,,,,,,7,5,61,4,,,,,,,,,,LearningTask,,,60.043089318,3,2015_Mar_04_1151,990,
white,,,,,,,7,6,62,1,,,,,,,,,,LearningTask,,,60.043089318,3,2015_Mar_04_1151,990,
cyan,,,,,,,7,7,63,6,,,,,,,,,,LearningTask,,,60.043089318,3,2015_Mar_04_1151,990,
,,,,,,,,,,,,,,,space,1.6140999794,,,,LearningTask,,,60.043089318,3,2015_Mar_04_1151,990,
,-200,down_left,hexagonmagenta.gif,Triangle,-200,g,,,,,0,0,0,13,,,g,1,0.550626039505,LearningTask,,,60.043089318,3,2015_Mar_04_1151,990,
,200,up_right,crosscyan.gif,Line,200,y,,,,,0,1,1,0,,,y,1,0.351109981537,LearningTask,,,60.043089318,3,2015_Mar_04_1151,990,
,200,down_right,diamondmagenta.gif,Circle,-200,h,,,,,0,2,2,11,,,h,1,0.351135969162,LearningTask,,,60.043089318,3,2015_Mar_04_1151,990,
,200,up_right,crossyellow.gif,Circle,200,y,,,,,0,3,3,3,,,y,1,0.350853919983,LearningTask,,,60.043089318,3,2015_Mar_04_1151,990,
