xPos,corrAns,yPos,corrGoResp,yPosGoStim,xPosGoStim,pracTrials.thisRepN,pracTrials.thisTrialN,pracTrials.thisN,pracTrials.thisIndex,ReDoLoopPrac.thisRepN,ReDoLoopPrac.thisTrialN,ReDoLoopPrac.thisN,ReDoLoopPrac.thisIndex,ReDoLoopPrac.thisTrial,pracStopTrials.thisRepN,pracStopTrials.thisTrialN,pracStopTrials.thisN,pracStopTrials.thisIndex,Blocks.thisRepN,Blocks.thisTrialN,Blocks.thisN,Blocks.thisIndex,Blocks.thisTrial,ok1.keys,ok1.rt,resp.keys,resp.corr,resp.rt,learningStimOnset,learningFixOnset,beginningSSD,trialType,goStim,goResp.keys,goResp.corr,goResp.rt,goTrailCountOutput,goCumRTOutput,goRTCountOutput,stopTrialCountOutput,stopSuccessCountOutput,omissionCountOutput,commissionCountOutput,fixStopOnset,goStimOnset,stopSignalOnset,key_resp_3.keys,key_resp_3.rt,expName,gender (m/f),age,frameRate,session,date,participant,
,,,,,,,,,,,,,,,,,,,,,,,,space,523.062291861,,,,,,,,,,,,,,,,,,,,,,,,LearningTask,,,59.7115149168,3,2015_May_26_1048,997,
200,s,-200,,,,0,0,0,6,0,0,0,0,None,,,,,,,,,,,,s,1,0.46787405014,0.500097990036,0.0744249820709,,,,,,,,,,,,,,,,,,,LearningTask,,,59.7115149168,3,2015_May_26_1048,997,
200,s,-200,,,,0,0,0,6,,,,,,,,,,,,,,,,,,,,,,,,,,,,,,,,,,,,,,,,LearningTask,,,59.7115149168,3,2015_May_26_1048,997,
200,w,200,,,,0,1,1,8,0,0,0,0,None,,,,,,,,,,,,w,1,0.434154987335,0.516026973724,0.000893115997314,,,,,,,,,,,,,,,,,,,LearningTask,,,59.7115149168,3,2015_May_26_1048,997,
200,w,200,,,,0,1,1,8,,,,,,,,,,,,,,,,,,,,,,,,,,,,,,,,,,,,,,,,LearningTask,,,59.7115149168,3,2015_May_26_1048,997,
-200,q,200,,,,0,2,2,5,0,0,0,0,None,,,,,,,,,,,,q,1,0.367846012115,0.514609098434,0.000879049301147,,,,,,,,,,,,,,,,,,,LearningTask,,,59.7115149168,3,2015_May_26_1048,997,
-200,q,200,,,,0,2,2,5,,,,,,,,,,,,,,,,,,,,,,,,,,,,,,,,,,,,,,,,LearningTask,,,59.7115149168,3,2015_May_26_1048,997,
200,w,200,,,,0,3,3,4,0,0,0,0,None,,,,,,,,,,,,w,1,0.467498064041,0.506701946259,0.000910043716431,,,,,,,,,,,,,,,,,,,LearningTask,,,59.7115149168,3,2015_May_26_1048,997,
200,w,200,,,,0,3,3,4,,,,,,,,,,,,,,,,,,,,,,,,,,,,,,,,,,,,,,,,LearningTask,,,59.7115149168,3,2015_May_26_1048,997,
-200,q,200,,,,0,4,4,9,0,0,0,0,None,,,,,,,,,,,,q,1,0.451287031174,0.501672029495,0.000882863998413,,,,,,,,,,,,,,,,,,,LearningTask,,,59.7115149168,3,2015_May_26_1048,997,
-200,q,200,,,,0,4,4,9,,,,,,,,,,,,,,,,,,,,,,,,,,,,,,,,,,,,,,,,LearningTask,,,59.7115149168,3,2015_May_26_1048,997,
200,w,200,,,,0,5,5,0,0,0,0,0,None,,,,,,,,,,,,w,1,0.450601100922,0.511567115784,0.000884056091309,,,,,,,,,,,,,,,,,,,LearningTask,,,59.7115149168,3,2015_May_26_1048,997,
200,w,200,,,,0,5,5,0,,,,,,,,,,,,,,,,,,,,,,,,,,,,,,,,,,,,,,,,LearningTask,,,59.7115149168,3,2015_May_26_1048,997,
-200,a,-200,,,,0,6,6,7,0,0,0,0,None,,,,,,,,,,,,a,1,0.417724132538,0.502861022949,0.000899076461792,,,,,,,,,,,,,,,,,,,LearningTask,,,59.7115149168,3,2015_May_26_1048,997,
-200,a,-200,,,,0,6,6,7,,,,,,,,,,,,,,,,,,,,,,,,,,,,,,,,,,,,,,,,LearningTask,,,59.7115149168,3,2015_May_26_1048,997,
-200,a,-200,,,,0,7,7,3,0,0,0,0,None,,,,,,,,,,,,a,1,0.467831850052,0.507881164551,0.000917196273804,,,,,,,,,,,,,,,,,,,LearningTask,,,59.7115149168,3,2015_May_26_1048,997,
-200,a,-200,,,,0,7,7,3,,,,,,,,,,,,,,,,,,,,,,,,,,,,,,,,,,,,,,,,LearningTask,,,59.7115149168,3,2015_May_26_1048,997,
-200,q,200,,,,0,8,8,1,0,0,0,0,None,,,,,,,,,,,,q,1,0.434212207794,0.505941867828,0.000891923904419,,,,,,,,,,,,,,,,,,,LearningTask,,,59.7115149168,3,2015_May_26_1048,997,
-200,q,200,,,,0,8,8,1,,,,,,,,,,,,,,,,,,,,,,,,,,,,,,,,,,,,,,,,LearningTask,,,59.7115149168,3,2015_May_26_1048,997,
200,s,-200,,,,0,9,9,2,0,0,0,0,None,,,,,,,,,,,,s,1,0.417272090912,0.515311956406,0.000945091247559,,,,,,,,,,,,,,,,,,,LearningTask,,,59.7115149168,3,2015_May_26_1048,997,
200,s,-200,,,,0,9,9,2,,,,,,,,,,,,,,,,,,,,,,,,,,,,,,,,,,,,,,,,LearningTask,,,59.7115149168,3,2015_May_26_1048,997,
,,,m,0,200,,,,,,,,,,0,0,0,1,,,,,,,,,,,,,0.25,stop,hexagonblue.gif,m,1,0.784603118896,0,0,0,1,0,0,0,0.00140714645386,0.501105070114,0.751576185226,,,LearningTask,,,59.7115149168,3,2015_May_26_1048,997,
,,,z,0,-200,,,,,,,,,,0,1,1,0,,,,,,,,,,,,,0.25,stop,linewhite.gif,z,1,0.400851011276,0,0,0,2,0,0,0,0.000954151153564,0.515567064285,0.765826940536,,,LearningTask,,,59.7115149168,3,2015_May_26_1048,997,
,,,z,0,-200,,,,,,,,,,1,0,2,0,,,,,,,,,,,,,0.25,stop,linewhite.gif,None,0,,0,0,0,3,1,0,0,0.000952005386353,0.515606880188,0.766030073166,,,LearningTask,,,59.7115149168,3,2015_May_26_1048,997,
,,,m,0,200,,,,,,,,,,1,1,3,1,,,,,,,,,,,,,-1,go,diamondmagenta.gif,m,1,0.534660100937,1,0.534660100937,1,3,1,0,0,0.00094199180603,0.515748023987,,,,LearningTask,,,59.7115149168,3,2015_May_26_1048,997,
,,,z,0,-200,,,,,,,,,,2,0,4,0,,,,,,,,,,,,,-1,go,trianglecyan.gif,z,1,0.634485006332,2,1.16914510727,2,3,1,0,0,0.00121402740479,0.515753984451,,,,LearningTask,,,59.7115149168,3,2015_May_26_1048,997,
,,,z,0,-200,,,,,,,,,,2,1,5,0,,,,,,,,,,,,,-1,go,squareorange.gif,z,1,0.668051958084,3,1.83719706535,3,3,1,0,0,0.00103807449341,0.515691041946,,,,LearningTask,,,59.7115149168,3,2015_May_26_1048,997,
,,,m,0,200,,,,,,,,,,3,0,6,1,,,,,,,,,,,,,0.25,stop,circlegray.gif,None,0,,3,1.83719706535,3,4,2,0,0,0.000937938690186,0.515647888184,0.765736818314,,,LearningTask,,,59.7115149168,3,2015_May_26_1048,997,
,,,m,0,200,,,,,,,,,,3,1,7,1,,,,,,,,,,,,,0.25,stop,invertedtriangleyellow.gif,None,0,,3,1.83719706535,3,5,3,0,0,0.0010769367218,0.515847921371,0.765990972519,,,LearningTask,,,59.7115149168,3,2015_May_26_1048,997,
,,,m,0,200,,,,,,,,,,4,0,8,1,,,,,,,,,,,,,0.25,stop,hexagonblue.gif,None,0,,3,1.83719706535,3,6,4,0,0,0.00095009803772,0.515649080276,0.766295909882,,,LearningTask,,,59.7115149168,3,2015_May_26_1048,997,
,,,z,0,-200,,,,,,,,,,4,1,9,0,,,,,,,,,,,,,0.25,stop,linewhite.gif,z,1,0.567983150482,3,1.83719706535,3,7,4,0,0,0.00115990638733,0.515374898911,0.765429973602,,,LearningTask,,,59.7115149168,3,2015_May_26_1048,997,
,,,,,,,,,,,,,,,,,,,,,,,,,,,,,,,,,,,,,,,,,,,,,,,space,237.062664032,LearningTask,,,59.7115149168,3,2015_May_26_1048,997,
,,,,,,,,,,,,,,,,,,,,,,,,escape,6.0569498539,,,,,,,,,,,,,,,,,,,,,,,,LearningTask,,,59.7115149168,3,2015_May_26_1048,997,
