xPos,corrAns,yPos,corrGoResp,yPosGoStim,xPosGoStim,pracTrials.thisRepN,pracTrials.thisTrialN,pracTrials.thisN,pracTrials.thisIndex,ReDoLoopPrac.thisRepN,ReDoLoopPrac.thisTrialN,ReDoLoopPrac.thisN,ReDoLoopPrac.thisIndex,ReDoLoopPrac.thisTrial,pracStopTrials.thisRepN,pracStopTrials.thisTrialN,pracStopTrials.thisN,pracStopTrials.thisIndex,Blocks.thisRepN,Blocks.thisTrialN,Blocks.thisN,Blocks.thisIndex,trials.thisRepN,trials.thisTrialN,trials.thisN,trials.thisIndex,ReDoLoopMain.thisRepN,ReDoLoopMain.thisTrialN,ReDoLoopMain.thisN,ReDoLoopMain.thisIndex,ReDoLoopMain.thisTrial,StopBlocks.thisRepN,StopBlocks.thisTrialN,StopBlocks.thisN,StopBlocks.thisIndex,StopTrials.thisRepN,StopTrials.thisTrialN,StopTrials.thisN,StopTrials.thisIndex,auctionBlocks.thisRepN,auctionBlocks.thisTrialN,auctionBlocks.thisN,auctionBlocks.thisIndex,auctionTrials.thisRepN,auctionTrials.thisTrialN,auctionTrials.thisN,auctionTrials.thisIndex,learningTrialList,learningPracTrialList,stopTrialList,stopPracTrialList,auctionTrialList,ok1.keys,ok1.rt,resp.keys,resp.corr,resp.rt,feedbackResp.keys,feedbackResp.corr,currentReward,currentStimulus,currentStimType,firstPracComputedRewardOutput,firstPracLearningStimOnset,firstPracLearningFixOnset,firstPracPresentationRT,firstPracPresentationAcc,firstPracPresentationResp,firstPracEndTrialTimeStamp,feedbackResp.rt,secondPracComputedRewardOutput,secondPracLearningStimOnset,secondPracLearningFixOnset,secondPracPresentationRT,secondPracPresentationAcc,secondPracPresentationResp,secondPracEndTrialTimeStamp,StartTrialTimeStamp,trialType,goStim,stimType,stopStimValue,goResp.keys,goResp.corr,goResp.rt,key_resp_9.keys,key_resp_9.corr,fixStopOnset,goStimOnset,stopSignalOnset,EndTrialTimeStamp,key_resp_3.keys,key_resp_3.rt,firstComputedRewardOutput,firstLearningStimOnset,firstLearningFixOnset,firstPresentationRT,firstPresentationAcc,firstPresentationResp,firstEndTrialTimeStamp,secondComputedRewardOutput,secondLearningStimOnset,secondLearningFixOnset,secondPresentationRT,secondPresentationAcc,secondPresentationResp,secondEndTrialTimeStamp,key_resp_7.keys,key_resp_7.rt,thirdComputedRewardOutput,thirdLearningStimOnset,thirdLearningFixOnset,thirdPresentationRT,thirdPresentationAcc,thirdPresentationResp,thirdEndTrialTimeStamp,fourthComputedRewardOutput,fourthLearningStimOnset,fourthLearningFixOnset,fourthPresentationRT,fourthPresentationAcc,fourthPresentationResp,fourthEndTrialTimeStamp,fifthComputedRewardOutput,fifthLearningStimOnset,fifthLearningFixOnset,fifthPresentationRT,fifthPresentationAcc,fifthPresentationResp,fifthEndTrialTimeStamp,beginningSSD,EndingSSD,key_resp_9.rt,key_resp_4.keys,key_resp_4.rt,auctionResponse.keys,auctionResponse.rt,auctionStimDuration,auctionStim,auctionAmounts,auctionStimValue,auctionCondition,chosenAuctionAmount,key_resp_5.keys,key_resp_5.rt,shuffledRewardList,chosenReward1,chosenReward2,chosenReward3,chosenReward4,chosenReward5,key_resp_6.keys,key_resp_6.rt,date,frameRate,expName,session,participant,
,,,,,,,,,,,,,,,,,,,,,,,,,,,,,,,,,,,,,,,,,,,,,,,,[],[],[],[],[],9,2.15257287025,,,,,,,,,,,,,,,,,,,,,,,,,,,,,,,,,,,,,,,,,,,,,,,,,,,,,,,,,,,,,,,,,,,,,,,,,,,,,,,,,,,,,,,,,,,,,,,,,,,,2015_Jun_22_2102,59.9754338752,LearningTask,10,9988,
200,w,200,,,,0,0,0,8,,,,,,,,,,,,,,,,,,,,,,,,,,,,,,,,,,,,,,,,,,,,,,w,1,0.483906030655,None,0,4.0,linemagenta.gif,go,4.17,0.508781909943,0.00344109535217,0.483906030655,1,w,19.0018241405,,,,,,,,,,,,,,,,,,,,,,,,,,,,,,,,,,,,,,,,,,,,,,,,,,,,,,,,,,,,,,,,,,,,,,,,,,,,,,,,,,,,,2015_Jun_22_2102,59.9754338752,LearningTask,10,9988,
-200,q,200,,,,0,1,1,5,,,,,,,,,,,,,,,,,,,,,,,,,,,,,,,,,,,,,,,,,,,,,,q,1,0.483746051788,None,0,2.0,triangleorange.gif,go,1.82,0.513294935226,0.00280213356018,0.483746051788,1,q,22.0014741421,,,,,,,,,,,,,,,,,,,,,,,,,,,,,,,,,,,,,,,,,,,,,,,,,,,,,,,,,,,,,,,,,,,,,,,,,,,,,,,,,,,,,2015_Jun_22_2102,59.9754338752,LearningTask,10,9988,
200,s,-200,,,,0,2,2,6,,,,,,,,,,,,,,,,,,,,,,,,,,,,,,,,,,,,,,,,,,,,,,s,1,0.383859872818,None,0,4.0,squarecyan.gif,stop,4.18,0.514580965042,0.00092601776123,0.383859872818,1,s,25.0021879673,,,,,,,,,,,,,,,,,,,,,,,,,,,,,,,,,,,,,,,,,,,,,,,,,,,,,,,,,,,,,,,,,,,,,,,,,,,,,,,,,,,,,2015_Jun_22_2102,59.9754338752,LearningTask,10,9988,
200,w,200,,,,0,3,3,4,,,,,,,,,,,,,,,,,,,,,,,,,,,,,,,,,,,,,,,,,,,,,,w,1,0.483851909637,None,0,4.0,linemagenta.gif,go,0,0.514253139496,0.000997066497803,0.483851909637,1,w,28.0024101734,,,,,,,,,,,,,,,,,,,,,,,,,,,,,,,,,,,,,,,,,,,,,,,,,,,,,,,,,,,,,,,,,,,,,,,,,,,,,,,,,,,,,2015_Jun_22_2102,59.9754338752,LearningTask,10,9988,
200,w,200,,,,0,4,4,0,,,,,,,,,,,,,,,,,,,,,,,,,,,,,,,,,,,,,,,,,,,,,,w,1,0.433706998825,None,0,4.0,linemagenta.gif,go,3.96,0.514407873154,0.000944852828979,0.433706998825,1,w,31.002833128,,,,,,,,,,,,,,,,,,,,,,,,,,,,,,,,,,,,,,,,,,,,,,,,,,,,,,,,,,,,,,,,,,,,,,,,,,,,,,,,,,,,,2015_Jun_22_2102,59.9754338752,LearningTask,10,9988,
200,s,-200,,,,0,5,5,2,,,,,,,,,,,,,,,,,,,,,,,,,,,,,,,,,,,,,,,,,,,,,,s,1,0.483944177628,None,0,0.5,diamondwhite.gif,stop,0.72,0.51438999176,0.00101900100708,0.483944177628,1,s,34.0035970211,,,,,,,,,,,,,,,,,,,,,,,,,,,,,,,,,,,,,,,,,,,,,,,,,,,,,,,,,,,,,,,,,,,,,,,,,,,,,,,,,,,,,2015_Jun_22_2102,59.9754338752,LearningTask,10,9988,
-200,q,200,,,,0,6,6,1,,,,,,,,,,,,,,,,,,,,,,,,,,,,,,,,,,,,,,,,,,,,,,q,1,0.350597858429,None,0,1.0,hexagongreen.gif,stop,0,0.513628959656,0.00230598449707,[],0,None,37.0035750866,0.35967707634,0.9,0.515405893326,0.0011260509491,0.350597858429,1,q,40.0044929981,,,,,,,,,,,,,,,,,,,,,,,,,,,,,,,,,,,,,,,,,,,,,,,,,,,,,,,,,,,,,,,,,,,,,,,,,,,,,2015_Jun_22_2102,59.9754338752,LearningTask,10,9988,
-200,a,-200,,,,0,7,7,7,,,,,,,,,,,,,,,,,,,,,,,,,,,,,,,,,,,,,,,,,,,,,,a,1,0.383810997009,None,0,0.5,invertedtrianglegray.gif,go,0,0.514188051224,0.00202703475952,[],0,None,43.0043079853,0.0111699104309,0.64,0.515662193298,0.000968217849731,0.383810997009,1,a,46.0051250458,,,,,,,,,,,,,,,,,,,,,,,,,,,,,,,,,,,,,,,,,,,,,,,,,,,,,,,,,,,,,,,,,,,,,,,,,,,,,2015_Jun_22_2102,59.9754338752,LearningTask,10,9988,
-200,q,200,,,,0,8,8,9,,,,,,,,,,,,,,,,,,,,,,,,,,,,,,,,,,,,,,,,,,,,,,q,1,0.433598041534,None,0,0.5,invertedtrianglegray.gif,go,0.5,0.514370918274,0.000960111618042,0.433598041534,1,q,49.0055091381,,,,,,,,,,,,,,,,,,,,,,,,,,,,,,,,,,,,,,,,,,,,,,,,,,,,,,,,,,,,,,,,,,,,,,,,,,,,,,,,,,,,,2015_Jun_22_2102,59.9754338752,LearningTask,10,9988,
-200,a,-200,,,,0,9,9,3,,,,,,,,,,,,,,,,,,,,,,,,,,,,,,,,,,,,,,,,,,,,,,a,1,0.483582019806,None,0,1.0,crossblue.gif,go,1.24,0.514127969742,0.00172901153564,0.483582019806,1,a,52.0057361126,,,,,,,,,,,,,,,,,,,,,,,,,,,,,,,,,,,,,,,,,,,,,,,,,,,,,,,,,,,,,,,,,,,,,,,,,,,,,,,,,,,,,2015_Jun_22_2102,59.9754338752,LearningTask,10,9988,
,,,m,0,200,,,,,,,,,,0,0,0,1,,,,,,,,,,,,,,,,,,,,,,,,,,,,,,,,,,,,,,,,,,,,,,,,,,,,,,,,,,,,60.3966891766,stop,diamondwhite.gif,stop,0.5,m,1,0.351125955582,None,0,0.00163006782532,0.508427143097,0.758812189102,63.3919861317,,,,,,,,,,,,,,,,,,,,,,,,,,,,,,,,,,,,,,,,,,,,,,,,,,,,,,,,,,,,,,,2015_Jun_22_2102,59.9754338752,LearningTask,10,9988,
,,,z,0,-200,,,,,,,,,,0,1,1,0,,,,,,,,,,,,,,,,,,,,,,,,,,,,,,,,,,,,,,,,,,,,,,,,,,,,,,,,,,,,63.3928179741,go,linemagenta.gif,go,4.0,z,1,0.633713960648,None,0,0.00128507614136,0.513293981552,,66.3914911747,,,,,,,,,,,,,,,,,,,,,,,,,,,,,,,,,,,,,,,,,,,,,,,,,,,,,,,,,,,,,,,2015_Jun_22_2102,59.9754338752,LearningTask,10,9988,
,,,z,0,-200,,,,,,,,,,1,0,2,0,,,,,,,,,,,,,,,,,,,,,,,,,,,,,,,,,,,,,,,,,,,,,,,,,,,,,,,,,,,,66.3918759823,go,invertedtrianglegray.gif,go,0.5,z,1,0.583523035049,None,0,0.000932931900024,0.514657974243,,69.3920841217,,,,,,,,,,,,,,,,,,,,,,,,,,,,,,,,,,,,,,,,,,,,,,,,,,,,,,,,,,,,,,,2015_Jun_22_2102,59.9754338752,LearningTask,10,9988,
,,,m,0,200,,,,,,,,,,1,1,3,1,,,,,,,,,,,,,,,,,,,,,,,,,,,,,,,,,,,,,,,,,,,,,,,,,,,,,,,,,,,,69.3928511143,go,invertedtrianglegray.gif,go,0.5,m,1,0.483310937881,None,0,0.00132703781128,0.514057159424,,72.3921041489,,,,,,,,,,,,,,,,,,,,,,,,,,,,,,,,,,,,,,,,,,,,,,,,,,,,,,,,,,,,,,,2015_Jun_22_2102,59.9754338752,LearningTask,10,9988,
,,,m,0,200,,,,,,,,,,2,0,4,1,,,,,,,,,,,,,,,,,,,,,,,,,,,,,,,,,,,,,,,,,,,,,,,,,,,,,,,,,,,,72.3925151825,stop,diamondwhite.gif,stop,0.5,m,1,0.433573007584,None,0,0.000994920730591,0.515142917633,0.765121936798,75.3933939934,,,,,,,,,,,,,,,,,,,,,,,,,,,,,,,,,,,,,,,,,,,,,,,,,,,,,,,,,,,,,,,2015_Jun_22_2102,59.9754338752,LearningTask,10,9988,
,,,m,0,200,,,,,,,,,,2,1,5,1,,,,,,,,,,,,,,,,,,,,,,,,,,,,,,,,,,,,,,,,,,,,,,,,,,,,,,,,,,,,75.3941559792,go,crossblue.gif,go,1.0,m,1,0.517594099045,None,0,0.00126695632935,0.513406991959,,78.3937790394,,,,,,,,,,,,,,,,,,,,,,,,,,,,,,,,,,,,,,,,,,,,,,,,,,,,,,,,,,,,,,,2015_Jun_22_2102,59.9754338752,LearningTask,10,9988,
,,,z,0,-200,,,,,,,,,,3,0,6,0,,,,,,,,,,,,,,,,,,,,,,,,,,,,,,,,,,,,,,,,,,,,,,,,,,,,,,,,,,,,78.3945431709,go,triangleorange.gif,go,2.0,z,1,0.60114979744,None,0,0.00177001953125,0.513341903687,,81.3941431046,,,,,,,,,,,,,,,,,,,,,,,,,,,,,,,,,,,,,,,,,,,,,,,,,,,,,,,,,,,,,,,2015_Jun_22_2102,59.9754338752,LearningTask,10,9988,
,,,z,0,-200,,,,,,,,,,3,1,7,0,,,,,,,,,,,,,,,,,,,,,,,,,,,,,,,,,,,,,,,,,,,,,,,,,,,,,,,,,,,,81.394906044,go,crossblue.gif,go,1.0,z,1,0.417144060135,None,0,0.00125980377197,0.513969898224,,84.39392519,,,,,,,,,,,,,,,,,,,,,,,,,,,,,,,,,,,,,,,,,,,,,,,,,,,,,,,,,,,,,,,2015_Jun_22_2102,59.9754338752,LearningTask,10,9988,
,,,z,0,-200,,,,,,,,,,4,0,8,0,,,,,,,,,,,,,,,,,,,,,,,,,,,,,,,,,,,,,,,,,,,,,,,,,,,,,,,,,,,,84.3943171501,go,triangleorange.gif,go,2.0,z,1,0.400766849518,None,0,0.00113105773926,0.515012979507,,87.395152092,,,,,,,,,,,,,,,,,,,,,,,,,,,,,,,,,,,,,,,,,,,,,,,,,,,,,,,,,,,,,,,2015_Jun_22_2102,59.9754338752,LearningTask,10,9988,
,,,m,0,200,,,,,,,,,,4,1,9,1,,,,,,,,,,,,,,,,,,,,,,,,,,,,,,,,,,,,,,,,,,,,,,,,,,,,,,,,,,,,87.3959159851,stop,hexagongreen.gif,stop,1.0,m,1,0.417670965195,None,0,0.00173091888428,0.513422012329,0.763525009155,90.3954310417,,,,,,,,,,,,,,,,,,,,,,,,,,,,,,,,,,,,,,,,,,,,,,,,,,,,,,,,,,,,,,,2015_Jun_22_2102,59.9754338752,LearningTask,10,9988,
,,,,,,,,,,,,,,,,,,,,,,,,,,,,,,,,,,,,,,,,,,,,,,,,,,,,,,,,,,,,,,,,,,,,,,,,,,,,,,,,,,,,,,,,,,,,9,26.5236940384,,,,,,,,,,,,,,,,,,,,,,,,,,,,,,,,,,,,,,,,,,,,,,,,,,,,,,,,,,,,,2015_Jun_22_2102,59.9754338752,LearningTask,10,9988,
,,,,,,,,,,,,,,,,,,,,,,,,,,,,,,,,,,,,,,,,,,,,,,,,,,,,,9,2.51602005959,,,,,,,,,,,,,,,,,,,,,,,,,,,,,,,,,,,,,,,,,,,,,,,,,,,,,,,,,,,,,,,,,,,,,,,,,,,,,,,,,,,,,,,,,,,,,,,,,,,,2015_Jun_22_2102,59.9754338752,LearningTask,10,9988,
-200,a,-200,,,,,,,,,,,,,,,,,0,0,0,0,0,0,0,3,,,,,,,,,,,,,,,,,,,,,,,,,,,,,a,1,0.384204149246,None,0,2.0,triangleorange.gif,go,,,,,,,,,,,,,,,,,,,,,,,,,,,,,,,,1.77,0.51167011261,0.0011351108551,0.384204149246,1,a,122.618956089,,,,,,,,,,,,,,,,,,,,,,,,,,,,,,,,,,,,,,,,,,,,,,,,,,,,,,2015_Jun_22_2102,59.9754338752,LearningTask,10,9988,
-200,q,200,,,,,,,,,,,,,,,,,0,0,0,0,0,1,1,1,,,,,,,,,,,,,,,,,,,,,,,,,,,,,q,1,0.435257911682,None,0,1.0,hexagongreen.gif,stop,,,,,,,,,,,,,,,,,,,,,,,,,,,,,,,,0,0.510133981705,0.00121688842773,0.435257911682,1,q,125.618838072,,,,,,,,,,,,,,,,,,,,,,,,,,,,,,,,,,,,,,,,,,,,,,,,,,,,,,2015_Jun_22_2102,59.9754338752,LearningTask,10,9988,
200,w,200,,,,,,,,,,,,,,,,,0,0,0,0,0,2,2,0,,,,,,,,,,,,,,,,,,,,,,,,,,,,,w,1,0.45068192482,None,0,0.5,invertedtrianglegray.gif,go,,,,,,,,,,,,,,,,,,,,,,,,,,,,,,,,0,0.511666059494,0.00130105018616,0.45068192482,1,w,128.619110107,,,,,,,,,,,,,,,,,,,,,,,,,,,,,,,,,,,,,,,,,,,,,,,,,,,,,,2015_Jun_22_2102,59.9754338752,LearningTask,10,9988,
200,s,-200,,,,,,,,,,,,,,,,,0,0,0,0,0,3,3,2,,,,,,,,,,,,,,,,,,,,,,,,,,,,,s,1,0.434096097946,None,0,4.0,squarecyan.gif,stop,,,,,,,,,,,,,,,,,,,,,,,,,,,,,,,,0,0.510626077652,0.00130105018616,0.434096097946,1,s,131.619465113,,,,,,,,,,,,,,,,,,,,,,,,,,,,,,,,,,,,,,,,,,,,,,,,,,,,,,2015_Jun_22_2102,59.9754338752,LearningTask,10,9988,
-200,q,200,,,,,,,,,,,,,,,,,0,0,0,0,1,0,4,1,,,,,,,,,,,,,,,,,,,,,,,,,,,,,q,1,0.451689958572,None,0,1.0,hexagongreen.gif,stop,,,,,,,,,,,,,,,,,,,,,,,,,,,,,,,,1.0,0.511095046997,0.00120306015015,0.451689958572,1,q,134.620079041,,,,,,,,,,,,,,,,,,,,,,,,,,,,,,,,,,,,,,,,,,,,,,,,,,,,,,2015_Jun_22_2102,59.9754338752,LearningTask,10,9988,
200,w,200,,,,,,,,,,,,,,,,,0,0,0,0,1,1,5,0,,,,,,,,,,,,,,,,,,,,,,,,,,,,,w,1,0.417678117752,None,0,0.5,invertedtrianglegray.gif,go,,,,,,,,,,,,,,,,,,,,,,,,,,,,,,,,0.26,0.511665821075,0.0011568069458,0.417678117752,1,w,137.619912148,,,,,,,,,,,,,,,,,,,,,,,,,,,,,,,,,,,,,,,,,,,,,,,,,,,,,,2015_Jun_22_2102,59.9754338752,LearningTask,10,9988,
-200,a,-200,,,,,,,,,,,,,,,,,0,0,0,0,1,2,6,3,,,,,,,,,,,,,,,,,,,,,,,,,,,,,a,1,0.384617805481,None,0,1.0,crossblue.gif,go,,,,,,,,,,,,,,,,,,,,,,,,,,,,,,,,0.79,0.511170864105,0.00121998786926,0.384617805481,1,a,140.620850086,,,,,,,,,,,,,,,,,,,,,,,,,,,,,,,,,,,,,,,,,,,,,,,,,,,,,,2015_Jun_22_2102,59.9754338752,LearningTask,10,9988,
200,s,-200,,,,,,,,,,,,,,,,,0,0,0,0,1,3,7,2,,,,,,,,,,,,,,,,,,,,,,,,,,,,,s,1,0.401514053345,None,0,1.0,hexagongreen.gif,stop,,,,,,,,,,,,,,,,,,,,,,,,,,,,,,,,1.17,0.511245965958,0.00119805335999,0.401514053345,1,s,143.621558189,,,,,,,,,,,,,,,,,,,,,,,,,,,,,,,,,,,,,,,,,,,,,,,,,,,,,,2015_Jun_22_2102,59.9754338752,LearningTask,10,9988,
-200,q,200,,,,,,,,,,,,,,,,,0,0,0,0,2,0,8,1,,,,,,,,,,,,,,,,,,,,,,,,,,,,,q,1,0.718662977219,None,0,0.5,diamondwhite.gif,stop,,,,,,,,,,,,,,,,,,,,,,,,,,,,,,,,0,0.510694980621,0.00121903419495,0.718662977219,1,q,146.621642113,,,,,,,,,,,,,,,,,,,,,,,,,,,,,,,,,,,,,,,,,,,,,,,,,,,,,,2015_Jun_22_2102,59.9754338752,LearningTask,10,9988,
-200,a,-200,,,,,,,,,,,,,,,,,0,0,0,0,2,1,9,3,,,,,,,,,,,,,,,,,,,,,,,,,,,,,a,1,0.367316961288,None,0,2.0,circleyellow.gif,stop,,,,,,,,,,,,,,,,,,,,,,,,,,,,,,,,1.78,0.511941194534,0.00189304351807,0.367316961288,1,a,149.622141123,,,,,,,,,,,,,,,,,,,,,,,,,,,,,,,,,,,,,,,,,,,,,,,,,,,,,,2015_Jun_22_2102,59.9754338752,LearningTask,10,9988,
200,s,-200,,,,,,,,,,,,,,,,,0,0,0,0,2,2,10,2,,,,,,,,,,,,,,,,,,,,,,,,,,,,,s,1,0.384027957916,None,0,2.0,circleyellow.gif,stop,,,,,,,,,,,,,,,,,,,,,,,,,,,,,,,,1.95,0.511044979095,0.00127196311951,0.384027957916,1,s,152.622295141,,,,,,,,,,,,,,,,,,,,,,,,,,,,,,,,,,,,,,,,,,,,,,,,,,,,,,2015_Jun_22_2102,59.9754338752,LearningTask,10,9988,
200,w,200,,,,,,,,,,,,,,,,,0,0,0,0,2,3,11,0,,,,,,,,,,,,,,,,,,,,,,,,,,,,,w,1,0.634039163589,None,0,4.0,linemagenta.gif,go,,,,,,,,,,,,,,,,,,,,,,,,,,,,,,,,4.04,0.511323928833,0.00130796432495,0.634039163589,1,w,155.621935129,,,,,,,,,,,,,,,,,,,,,,,,,,,,,,,,,,,,,,,,,,,,,,,,,,,,,,2015_Jun_22_2102,59.9754338752,LearningTask,10,9988,
-200,q,200,,,,,,,,,,,,,,,,,0,0,0,0,3,0,12,1,,,,,,,,,,,,,,,,,,,,,,,,,,,,,q,1,0.367356061935,None,0,0.5,invertedtrianglegray.gif,go,,,,,,,,,,,,,,,,,,,,,,,,,,,,,,,,0.68,0.512626171112,0.00103902816772,0.367356061935,1,q,158.622693062,,,,,,,,,,,,,,,,,,,,,,,,,,,,,,,,,,,,,,,,,,,,,,,,,,,,,,2015_Jun_22_2102,59.9754338752,LearningTask,10,9988,
-200,q,200,,,,,,,,,,,,,,,,,0,0,0,0,3,1,13,1,,,,,,,,,,,,,,,,,,,,,,,,,,,,,q,1,0.534072875977,None,0,4.0,squarecyan.gif,stop,,,,,,,,,,,,,,,,,,,,,,,,,,,,,,,,4.21,0.512085914612,0.00112581253052,0.534072875977,1,q,161.623579025,,,,,,,,,,,,,,,,,,,,,,,,,,,,,,,,,,,,,,,,,,,,,,,,,,,,,,2015_Jun_22_2102,59.9754338752,LearningTask,10,9988,
-200,q,200,,,,,,,,,,,,,,,,,0,0,0,0,3,2,14,1,,,,,,,,,,,,,,,,,,,,,,,,,,,,,q,1,0.467602968216,None,0,1.0,hexagongreen.gif,stop,,,,,,,,,,,,,,,,,,,,,,,,,,,,,,,,1.13,0.511487960815,0.0012218952179,0.467602968216,1,q,164.624631166,,,,,,,,,,,,,,,,,,,,,,,,,,,,,,,,,,,,,,,,,,,,,,,,,,,,,,2015_Jun_22_2102,59.9754338752,LearningTask,10,9988,
200,s,-200,,,,,,,,,,,,,,,,,0,0,0,0,3,3,15,2,,,,,,,,,,,,,,,,,,,,,,,,,,,,,s,1,0.434664011002,None,0,0.5,diamondwhite.gif,stop,,,,,,,,,,,,,,,,,,,,,,,,,,,,,,,,0.51,0.5114839077,0.00122690200806,0.434664011002,1,s,167.624916077,,,,,,,,,,,,,,,,,,,,,,,,,,,,,,,,,,,,,,,,,,,,,,,,,,,,,,2015_Jun_22_2102,59.9754338752,LearningTask,10,9988,
-200,a,-200,,,,,,,,,,,,,,,,,0,0,0,0,4,0,16,3,,,,,,,,,,,,,,,,,,,,,,,,,,,,,a,1,0.517936944962,None,0,0.5,diamondwhite.gif,stop,,,,,,,,,,,,,,,,,,,,,,,,,,,,,,,,0.64,0.511411905289,0.00124597549438,0.517936944962,1,a,170.624901056,,,,,,,,,,,,,,,,,,,,,,,,,,,,,,,,,,,,,,,,,,,,,,,,,,,,,,2015_Jun_22_2102,59.9754338752,LearningTask,10,9988,
-200,q,200,,,,,,,,,,,,,,,,,0,0,0,0,4,1,17,1,,,,,,,,,,,,,,,,,,,,,,,,,,,,,q,1,0.417715072632,None,0,0.5,invertedtrianglegray.gif,go,,,,,,,,,,,,,,,,,,,,,,,,,,,,,,,,0.75,0.51182103157,0.00124311447144,0.417715072632,1,q,173.625215054,,,,,,,,,,,,,,,,,,,,,,,,,,,,,,,,,,,,,,,,,,,,,,,,,,,,,,2015_Jun_22_2102,59.9754338752,LearningTask,10,9988,
-200,q,200,,,,,,,,,,,,,,,,,0,0,0,0,4,2,18,1,,,,,,,,,,,,,,,,,,,,,,,,,,,,,q,1,0.517154932022,None,0,4.0,squarecyan.gif,stop,,,,,,,,,,,,,,,,,,,,,,,,,,,,,,,,3.79,0.512245893478,0.00129699707031,0.517154932022,1,q,176.626029968,,,,,,,,,,,,,,,,,,,,,,,,,,,,,,,,,,,,,,,,,,,,,,,,,,,,,,2015_Jun_22_2102,59.9754338752,LearningTask,10,9988,
-200,a,-200,,,,,,,,,,,,,,,,,0,0,0,0,4,3,19,3,,,,,,,,,,,,,,,,,,,,,,,,,,,,,a,1,0.434535980225,None,0,0.5,invertedtrianglegray.gif,go,,,,,,,,,,,,,,,,,,,,,,,,,,,,,,,,0.52,0.51170706749,0.00121402740479,0.434535980225,1,a,179.626209974,,,,,,,,,,,,,,,,,,,,,,,,,,,,,,,,,,,,,,,,,,,,,,,,,,,,,,2015_Jun_22_2102,59.9754338752,LearningTask,10,9988,
200,w,200,,,,,,,,,,,,,,,,,0,0,0,0,5,0,20,0,,,,,,,,,,,,,,,,,,,,,,,,,,,,,w,1,0.351451873779,None,0,0.5,diamondwhite.gif,stop,,,,,,,,,,,,,,,,,,,,,,,,,,,,,,,,0.57,0.511182069778,0.00121903419495,0.351451873779,1,w,182.625414133,,,,,,,,,,,,,,,,,,,,,,,,,,,,,,,,,,,,,,,,,,,,,,,,,,,,,,2015_Jun_22_2102,59.9754338752,LearningTask,10,9988,
200,w,200,,,,,,,,,,,,,,,,,0,0,0,0,5,1,21,0,,,,,,,,,,,,,,,,,,,,,,,,,,,,,w,1,0.383924007416,None,0,4.0,squarecyan.gif,stop,,,,,,,,,,,,,,,,,,,,,,,,,,,,,,,,3.86,0.51296210289,0.00136208534241,0.383924007416,1,w,185.62767005,,,,,,,,,,,,,,,,,,,,,,,,,,,,,,,,,,,,,,,,,,,,,,,,,,,,,,2015_Jun_22_2102,59.9754338752,LearningTask,10,9988,
200,s,-200,,,,,,,,,,,,,,,,,0,0,0,0,5,2,22,2,,,,,,,,,,,,,,,,,,,,,,,,,,,,,s,1,0.416691064835,None,0,1.0,hexagongreen.gif,stop,,,,,,,,,,,,,,,,,,,,,,,,,,,,,,,,0.85,0.511404037476,0.00124907493591,0.416691064835,1,s,188.627303123,,,,,,,,,,,,,,,,,,,,,,,,,,,,,,,,,,,,,,,,,,,,,,,,,,,,,,2015_Jun_22_2102,59.9754338752,LearningTask,10,9988,
200,w,200,,,,,,,,,,,,,,,,,0,0,0,0,5,3,23,0,,,,,,,,,,,,,,,,,,,,,,,,,,,,,w,1,0.417731046677,None,0,1.0,hexagongreen.gif,stop,,,,,,,,,,,,,,,,,,,,,,,,,,,,,,,,0,0.511312007904,0.00144100189209,0.417731046677,1,w,191.627945185,,,,,,,,,,,,,,,,,,,,,,,,,,,,,,,,,,,,,,,,,,,,,,,,,,,,,,2015_Jun_22_2102,59.9754338752,LearningTask,10,9988,
-200,q,200,,,,,,,,,,,,,,,,,0,0,0,0,6,0,24,1,,,,,,,,,,,,,,,,,,,,,,,,,,,,,q,1,0.466210126877,None,0,1.0,hexagongreen.gif,stop,,,,,,,,,,,,,,,,,,,,,,,,,,,,,,,,0.8,0.512301206589,0.001216173172,0.466210126877,1,q,194.628067017,,,,,,,,,,,,,,,,,,,,,,,,,,,,,,,,,,,,,,,,,,,,,,,,,,,,,,2015_Jun_22_2102,59.9754338752,LearningTask,10,9988,
200,s,-200,,,,,,,,,,,,,,,,,0,0,0,0,6,1,25,2,,,,,,,,,,,,,,,,,,,,,,,,,,,,,s,1,0.500219106674,None,0,4.0,linemagenta.gif,go,,,,,,,,,,,,,,,,,,,,,,,,,,,,,,,,0,0.512287855148,0.0012469291687,0.500219106674,1,s,197.627678156,,,,,,,,,,,,,,,,,,,,,,,,,,,,,,,,,,,,,,,,,,,,,,,,,,,,,,2015_Jun_22_2102,59.9754338752,LearningTask,10,9988,
200,w,200,,,,,,,,,,,,,,,,,0,0,0,0,6,2,26,0,,,,,,,,,,,,,,,,,,,,,,,,,,,,,w,1,0.517440080643,None,0,2.0,circleyellow.gif,stop,,,,,,,,,,,,,,,,,,,,,,,,,,,,,,,,0,0.513190984726,0.000947952270508,0.517440080643,1,w,200.629091978,,,,,,,,,,,,,,,,,,,,,,,,,,,,,,,,,,,,,,,,,,,,,,,,,,,,,,2015_Jun_22_2102,59.9754338752,LearningTask,10,9988,
200,w,200,,,,,,,,,,,,,,,,,0,0,0,0,6,3,27,0,,,,,,,,,,,,,,,,,,,,,,,,,,,,,w,1,0.35033416748,None,0,0.5,diamondwhite.gif,stop,,,,,,,,,,,,,,,,,,,,,,,,,,,,,,,,0.27,0.51163816452,0.00125598907471,0.35033416748,1,w,203.630422115,,,,,,,,,,,,,,,,,,,,,,,,,,,,,,,,,,,,,,,,,,,,,,,,,,,,,,2015_Jun_22_2102,59.9754338752,LearningTask,10,9988,
200,w,200,,,,,,,,,,,,,,,,,0,0,0,0,7,0,28,0,,,,,,,,,,,,,,,,,,,,,,,,,,,,,w,1,0.799723863602,None,0,4.0,linemagenta.gif,go,,,,,,,,,,,,,,,,,,,,,,,,,,,,,,,,0,0.510964870453,0.00121593475342,0.799723863602,1,w,206.63045311,,,,,,,,,,,,,,,,,,,,,,,,,,,,,,,,,,,,,,,,,,,,,,,,,,,,,,2015_Jun_22_2102,59.9754338752,LearningTask,10,9988,
200,s,-200,,,,,,,,,,,,,,,,,0,0,0,0,7,1,29,2,,,,,,,,,,,,,,,,,,,,,,,,,,,,,s,1,0.400488853455,None,0,1.0,hexagongreen.gif,stop,,,,,,,,,,,,,,,,,,,,,,,,,,,,,,,,1.04,0.511288881302,0.00123286247253,0.400488853455,1,s,209.629542112,,,,,,,,,,,,,,,,,,,,,,,,,,,,,,,,,,,,,,,,,,,,,,,,,,,,,,2015_Jun_22_2102,59.9754338752,LearningTask,10,9988,
-200,a,-200,,,,,,,,,,,,,,,,,0,0,0,0,7,2,30,3,,,,,,,,,,,,,,,,,,,,,,,,,,,,,a,1,0.417361974716,None,0,0.5,diamondwhite.gif,stop,,,,,,,,,,,,,,,,,,,,,,,,,,,,,,,,0.75,0.512653112411,0.000935077667236,0.417361974716,1,a,212.629177094,,,,,,,,,,,,,,,,,,,,,,,,,,,,,,,,,,,,,,,,,,,,,,,,,,,,,,2015_Jun_22_2102,59.9754338752,LearningTask,10,9988,
200,w,200,,,,,,,,,,,,,,,,,0,0,0,0,7,3,31,0,,,,,,,,,,,,,,,,,,,,,,,,,,,,,w,1,0.401866912842,None,0,4.0,linemagenta.gif,go,,,,,,,,,,,,,,,,,,,,,,,,,,,,,,,,0,0.51355099678,0.000995874404907,0.401866912842,1,w,215.630841017,,,,,,,,,,,,,,,,,,,,,,,,,,,,,,,,,,,,,,,,,,,,,,,,,,,,,,2015_Jun_22_2102,59.9754338752,LearningTask,10,9988,
-200,a,-200,,,,,,,,,,,,,,,,,0,0,0,0,8,0,32,3,,,,,,,,,,,,,,,,,,,,,,,,,,,,,a,1,0.334298849106,None,0,4.0,linemagenta.gif,go,,,,,,,,,,,,,,,,,,,,,,,,,,,,,,,,4.21,0.511887073517,0.00131916999817,0.334298849106,1,a,218.631886005,,,,,,,,,,,,,,,,,,,,,,,,,,,,,,,,,,,,,,,,,,,,,,,,,,,,,,2015_Jun_22_2102,59.9754338752,LearningTask,10,9988,
200,s,-200,,,,,,,,,,,,,,,,,0,0,0,0,8,1,33,2,,,,,,,,,,,,,,,,,,,,,,,,,,,,,s,1,0.401086091995,None,0,1.0,crossblue.gif,go,,,,,,,,,,,,,,,,,,,,,,,,,,,,,,,,0,0.510811090469,0.00122690200806,0.401086091995,1,s,221.630728006,,,,,,,,,,,,,,,,,,,,,,,,,,,,,,,,,,,,,,,,,,,,,,,,,,,,,,2015_Jun_22_2102,59.9754338752,LearningTask,10,9988,
200,s,-200,,,,,,,,,,,,,,,,,0,0,0,0,8,2,34,2,,,,,,,,,,,,,,,,,,,,,,,,,,,,,s,1,0.4170358181,None,0,2.0,triangleorange.gif,go,,,,,,,,,,,,,,,,,,,,,,,,,,,,,,,,0,0.513792037964,0.00092887878418,0.4170358181,1,s,224.632703066,,,,,,,,,,,,,,,,,,,,,,,,,,,,,,,,,,,,,,,,,,,,,,,,,,,,,,2015_Jun_22_2102,59.9754338752,LearningTask,10,9988,
-200,a,-200,,,,,,,,,,,,,,,,,0,0,0,0,8,3,35,3,,,,,,,,,,,,,,,,,,,,,,,,,,,,,a,1,0.435291051865,None,0,0.5,invertedtrianglegray.gif,go,,,,,,,,,,,,,,,,,,,,,,,,,,,,,,,,0,0.511332988739,0.00122594833374,0.435291051865,1,a,227.63122797,,,,,,,,,,,,,,,,,,,,,,,,,,,,,,,,,,,,,,,,,,,,,,,,,,,,,,2015_Jun_22_2102,59.9754338752,LearningTask,10,9988,
200,s,-200,,,,,,,,,,,,,,,,,0,0,0,0,9,0,36,2,,,,,,,,,,,,,,,,,,,,,,,,,,,,,s,1,0.350940942764,None,0,4.0,linemagenta.gif,go,,,,,,,,,,,,,,,,,,,,,,,,,,,,,,,,4.1,0.513658046722,0.00113582611084,0.350940942764,1,s,230.633583069,,,,,,,,,,,,,,,,,,,,,,,,,,,,,,,,,,,,,,,,,,,,,,,,,,,,,,2015_Jun_22_2102,59.9754338752,LearningTask,10,9988,
200,s,-200,,,,,,,,,,,,,,,,,0,0,0,0,9,1,37,2,,,,,,,,,,,,,,,,,,,,,,,,,,,,,s,1,0.41726899147,None,0,0.5,invertedtrianglegray.gif,go,,,,,,,,,,,,,,,,,,,,,,,,,,,,,,,,0.62,0.511412143707,0.00116801261902,0.41726899147,1,s,233.634243011,,,,,,,,,,,,,,,,,,,,,,,,,,,,,,,,,,,,,,,,,,,,,,,,,,,,,,2015_Jun_22_2102,59.9754338752,LearningTask,10,9988,
200,s,-200,,,,,,,,,,,,,,,,,0,0,0,0,9,2,38,2,,,,,,,,,,,,,,,,,,,,,,,,,,,,,s,1,0.434512138367,None,0,2.0,triangleorange.gif,go,,,,,,,,,,,,,,,,,,,,,,,,,,,,,,,,0,0.511121988297,0.00121402740479,0.434512138367,1,s,236.634140015,,,,,,,,,,,,,,,,,,,,,,,,,,,,,,,,,,,,,,,,,,,,,,,,,,,,,,2015_Jun_22_2102,59.9754338752,LearningTask,10,9988,
-200,a,-200,,,,,,,,,,,,,,,,,0,0,0,0,9,3,39,3,,,,,,,,,,,,,,,,,,,,,,,,,,,,,a,1,0.368729114532,None,0,2.0,triangleorange.gif,go,,,,,,,,,,,,,,,,,,,,,,,,,,,,,,,,1.79,0.511141061783,0.00127196311951,0.368729114532,1,a,239.635421038,,,,,,,,,,,,,,,,,,,,,,,,,,,,,,,,,,,,,,,,,,,,,,,,,,,,,,2015_Jun_22_2102,59.9754338752,LearningTask,10,9988,
-200,q,200,,,,,,,,,,,,,,,,,0,0,0,0,10,0,40,1,,,,,,,,,,,,,,,,,,,,,,,,,,,,,q,1,0.384532928467,None,0,1.0,hexagongreen.gif,stop,,,,,,,,,,,,,,,,,,,,,,,,,,,,,,,,0,0.509916067123,0.00120711326599,0.635909080505,0,s,242.635483027,0.94,0.512785196304,0.00134301185608,0.384532928467,1,q,245.63628006,,,,,,,,,,,,,,,,,,,,,,,,,,,,,,,,,,,,,,,,,,,,,,,2015_Jun_22_2102,59.9754338752,LearningTask,10,9988,
-200,a,-200,,,,,,,,,,,,,,,,,0,0,0,0,10,1,41,3,,,,,,,,,,,,,,,,,,,,,,,,,,,,,a,1,0.433274030685,None,0,1.0,hexagongreen.gif,stop,,,,,,,,,,,,,,,,,,,,,,,,,,,,,,,,1.17,0.511248111725,0.00125002861023,0.433274030685,1,a,248.635962963,,,,,,,,,,,,,,,,,,,,,,,,,,,,,,,,,,,,,,,,,,,,,,,,,,,,,,2015_Jun_22_2102,59.9754338752,LearningTask,10,9988,
-200,a,-200,,,,,,,,,,,,,,,,,0,0,0,0,10,2,42,3,,,,,,,,,,,,,,,,,,,,,,,,,,,,,a,1,0.435529947281,None,0,4.0,squarecyan.gif,stop,,,,,,,,,,,,,,,,,,,,,,,,,,,,,,,,0,0.511182069778,0.00140810012817,0.435529947281,1,a,251.637202978,,,,,,,,,,,,,,,,,,,,,,,,,,,,,,,,,,,,,,,,,,,,,,,,,,,,,,2015_Jun_22_2102,59.9754338752,LearningTask,10,9988,
-200,q,200,,,,,,,,,,,,,,,,,0,0,0,0,10,3,43,1,,,,,,,,,,,,,,,,,,,,,,,,,,,,,q,1,0.4675822258,None,0,2.0,circleyellow.gif,stop,,,,,,,,,,,,,,,,,,,,,,,,,,,,,,,,0,0.510783910751,0.00121188163757,0.4675822258,1,q,254.636824131,,,,,,,,,,,,,,,,,,,,,,,,,,,,,,,,,,,,,,,,,,,,,,,,,,,,,,2015_Jun_22_2102,59.9754338752,LearningTask,10,9988,
-200,q,200,,,,,,,,,,,,,,,,,0,0,0,0,11,0,44,1,,,,,,,,,,,,,,,,,,,,,,,,,,,,,q,1,0.5845079422,None,0,0.5,diamondwhite.gif,stop,,,,,,,,,,,,,,,,,,,,,,,,,,,,,,,,0.32,0.511845111847,0.00120210647583,0.5845079422,1,q,257.636944056,,,,,,,,,,,,,,,,,,,,,,,,,,,,,,,,,,,,,,,,,,,,,,,,,,,,,,2015_Jun_22_2102,59.9754338752,LearningTask,10,9988,
-200,a,-200,,,,,,,,,,,,,,,,,0,0,0,0,11,1,45,3,,,,,,,,,,,,,,,,,,,,,,,,,,,,,a,1,0.435170888901,None,0,4.0,squarecyan.gif,stop,,,,,,,,,,,,,,,,,,,,,,,,,,,,,,,,0,0.511407852173,0.00122284889221,0.435170888901,1,a,260.637863159,,,,,,,,,,,,,,,,,,,,,,,,,,,,,,,,,,,,,,,,,,,,,,,,,,,,,,2015_Jun_22_2102,59.9754338752,LearningTask,10,9988,
200,s,-200,,,,,,,,,,,,,,,,,0,0,0,0,11,2,46,2,,,,,,,,,,,,,,,,,,,,,,,,,,,,,s,1,0.400763988495,None,0,2.0,triangleorange.gif,go,,,,,,,,,,,,,,,,,,,,,,,,,,,,,,,,1.87,0.511709213257,0.00117516517639,0.400763988495,1,s,263.638473988,,,,,,,,,,,,,,,,,,,,,,,,,,,,,,,,,,,,,,,,,,,,,,,,,,,,,,2015_Jun_22_2102,59.9754338752,LearningTask,10,9988,
200,s,-200,,,,,,,,,,,,,,,,,0,0,0,0,11,3,47,2,,,,,,,,,,,,,,,,,,,,,,,,,,,,,s,1,0.368677139282,None,0,2.0,triangleorange.gif,go,,,,,,,,,,,,,,,,,,,,,,,,,,,,,,,,0,0.510324001312,0.00122404098511,0.368677139282,1,s,266.638103962,,,,,,,,,,,,,,,,,,,,,,,,,,,,,,,,,,,,,,,,,,,,,,,,,,,,,,2015_Jun_22_2102,59.9754338752,LearningTask,10,9988,
200,s,-200,,,,,,,,,,,,,,,,,0,0,0,0,12,0,48,2,,,,,,,,,,,,,,,,,,,,,,,,,,,,,s,1,0.418114185333,None,0,1.0,crossblue.gif,go,,,,,,,,,,,,,,,,,,,,,,,,,,,,,,,,0.88,0.511940002441,0.00112915039062,0.418114185333,1,s,269.638727188,,,,,,,,,,,,,,,,,,,,,,,,,,,,,,,,,,,,,,,,,,,,,,,,,,,,,,2015_Jun_22_2102,59.9754338752,LearningTask,10,9988,
-200,a,-200,,,,,,,,,,,,,,,,,0,0,0,0,12,1,49,3,,,,,,,,,,,,,,,,,,,,,,,,,,,,,a,1,0.38477897644,None,0,1.0,hexagongreen.gif,stop,,,,,,,,,,,,,,,,,,,,,,,,,,,,,,,,0.98,0.511678934097,0.00128602981567,0.38477897644,1,a,272.639585018,,,,,,,,,,,,,,,,,,,,,,,,,,,,,,,,,,,,,,,,,,,,,,,,,,,,,,2015_Jun_22_2102,59.9754338752,LearningTask,10,9988,
200,s,-200,,,,,,,,,,,,,,,,,0,0,0,0,12,2,50,2,,,,,,,,,,,,,,,,,,,,,,,,,,,,,s,1,0.40074300766,None,0,2.0,triangleorange.gif,go,,,,,,,,,,,,,,,,,,,,,,,,,,,,,,,,2.0,0.511137008667,0.00122380256653,0.40074300766,1,s,275.639671087,,,,,,,,,,,,,,,,,,,,,,,,,,,,,,,,,,,,,,,,,,,,,,,,,,,,,,2015_Jun_22_2102,59.9754338752,LearningTask,10,9988,
200,s,-200,,,,,,,,,,,,,,,,,0,0,0,0,12,3,51,2,,,,,,,,,,,,,,,,,,,,,,,,,,,,,s,1,0.401842832565,None,0,0.5,diamondwhite.gif,stop,,,,,,,,,,,,,,,,,,,,,,,,,,,,,,,,0.52,0.511075019836,0.00149321556091,0.401842832565,1,s,278.640252113,,,,,,,,,,,,,,,,,,,,,,,,,,,,,,,,,,,,,,,,,,,,,,,,,,,,,,2015_Jun_22_2102,59.9754338752,LearningTask,10,9988,
-200,a,-200,,,,,,,,,,,,,,,,,0,0,0,0,13,0,52,3,,,,,,,,,,,,,,,,,,,,,,,,,,,,,a,1,0.41871213913,None,0,4.0,squarecyan.gif,stop,,,,,,,,,,,,,,,,,,,,,,,,,,,,,,,,4.07,0.511081933975,0.00125694274902,0.41871213913,1,a,281.641414165,,,,,,,,,,,,,,,,,,,,,,,,,,,,,,,,,,,,,,,,,,,,,,,,,,,,,,2015_Jun_22_2102,59.9754338752,LearningTask,10,9988,
-200,a,-200,,,,,,,,,,,,,,,,,0,0,0,0,13,1,53,3,,,,,,,,,,,,,,,,,,,,,,,,,,,,,a,1,0.401245117188,None,0,0.5,invertedtrianglegray.gif,go,,,,,,,,,,,,,,,,,,,,,,,,,,,,,,,,0.66,0.510509967804,0.00121593475342,0.401245117188,1,a,284.641775131,,,,,,,,,,,,,,,,,,,,,,,,,,,,,,,,,,,,,,,,,,,,,,,,,,,,,,2015_Jun_22_2102,59.9754338752,LearningTask,10,9988,
200,w,200,,,,,,,,,,,,,,,,,0,0,0,0,13,2,54,0,,,,,,,,,,,,,,,,,,,,,,,,,,,,,w,1,0.384588003159,None,0,1.0,crossblue.gif,go,,,,,,,,,,,,,,,,,,,,,,,,,,,,,,,,0.98,0.511157035828,0.00116491317749,0.384588003159,1,w,287.641983032,,,,,,,,,,,,,,,,,,,,,,,,,,,,,,,,,,,,,,,,,,,,,,,,,,,,,,2015_Jun_22_2102,59.9754338752,LearningTask,10,9988,
200,w,200,,,,,,,,,,,,,,,,,0,0,0,0,13,3,55,0,,,,,,,,,,,,,,,,,,,,,,,,,,,,,w,1,0.535075902939,None,0,1.0,hexagongreen.gif,stop,,,,,,,,,,,,,,,,,,,,,,,,,,,,,,,,0,0.510257959366,0.00120401382446,0.535075902939,1,w,290.641504049,,,,,,,,,,,,,,,,,,,,,,,,,,,,,,,,,,,,,,,,,,,,,,,,,,,,,,2015_Jun_22_2102,59.9754338752,LearningTask,10,9988,
200,w,200,,,,,,,,,,,,,,,,,0,0,0,0,14,0,56,0,,,,,,,,,,,,,,,,,,,,,,,,,,,,,w,1,0.41846704483,None,0,0.5,diamondwhite.gif,stop,,,,,,,,,,,,,,,,,,,,,,,,,,,,,,,,0.59,0.511317968369,0.00137710571289,0.41846704483,1,w,293.641894102,,,,,,,,,,,,,,,,,,,,,,,,,,,,,,,,,,,,,,,,,,,,,,,,,,,,,,2015_Jun_22_2102,59.9754338752,LearningTask,10,9988,
-200,q,200,,,,,,,,,,,,,,,,,0,0,0,0,14,1,57,1,,,,,,,,,,,,,,,,,,,,,,,,,,,,,q,1,0.401194095612,None,0,4.0,linemagenta.gif,go,,,,,,,,,,,,,,,,,,,,,,,,,,,,,,,,3.98,0.512245893478,0.0012218952179,0.401194095612,1,q,296.642904997,,,,,,,,,,,,,,,,,,,,,,,,,,,,,,,,,,,,,,,,,,,,,,,,,,,,,,2015_Jun_22_2102,59.9754338752,LearningTask,10,9988,
200,w,200,,,,,,,,,,,,,,,,,0,0,0,0,14,2,58,0,,,,,,,,,,,,,,,,,,,,,,,,,,,,,w,1,0.466615915298,None,0,4.0,squarecyan.gif,stop,,,,,,,,,,,,,,,,,,,,,,,,,,,,,,,,4.13,0.511855840683,0.00157785415649,0.466615915298,1,w,299.64352107,,,,,,,,,,,,,,,,,,,,,,,,,,,,,,,,,,,,,,,,,,,,,,,,,,,,,,2015_Jun_22_2102,59.9754338752,LearningTask,10,9988,
-200,q,200,,,,,,,,,,,,,,,,,0,0,0,0,14,3,59,1,,,,,,,,,,,,,,,,,,,,,,,,,,,,,q,1,0.418860912323,None,0,4.0,squarecyan.gif,stop,,,,,,,,,,,,,,,,,,,,,,,,,,,,,,,,3.91,0.511103868484,0.00117683410645,0.418860912323,1,q,302.644347191,,,,,,,,,,,,,,,,,,,,,,,,,,,,,,,,,,,,,,,,,,,,,,,,,,,,,,2015_Jun_22_2102,59.9754338752,LearningTask,10,9988,
-200,q,200,,,,,,,,,,,,,,,,,0,0,0,0,15,0,60,1,,,,,,,,,,,,,,,,,,,,,,,,,,,,,q,1,0.367160081863,None,0,1.0,hexagongreen.gif,stop,,,,,,,,,,,,,,,,,,,,,,,,,,,,,,,,1.08,0.511396169662,0.00136518478394,0.367160081863,1,q,305.644608974,,,,,,,,,,,,,,,,,,,,,,,,,,,,,,,,,,,,,,,,,,,,,,,,,,,,,,2015_Jun_22_2102,59.9754338752,LearningTask,10,9988,
200,w,200,,,,,,,,,,,,,,,,,0,0,0,0,15,1,61,0,,,,,,,,,,,,,,,,,,,,,,,,,,,,,w,1,0.384400129318,None,0,0.5,invertedtrianglegray.gif,go,,,,,,,,,,,,,,,,,,,,,,,,,,,,,,,,0,0.510540008545,0.00129985809326,0.384400129318,1,w,308.644289017,,,,,,,,,,,,,,,,,,,,,,,,,,,,,,,,,,,,,,,,,,,,,,,,,,,,,,2015_Jun_22_2102,59.9754338752,LearningTask,10,9988,
-200,q,200,,,,,,,,,,,,,,,,,0,0,0,0,15,2,62,1,,,,,,,,,,,,,,,,,,,,,,,,,,,,,q,1,0.384319067001,None,0,1.0,crossblue.gif,go,,,,,,,,,,,,,,,,,,,,,,,,,,,,,,,,1.22,0.512229204178,0.00120711326599,0.384319067001,1,q,311.64313817,,,,,,,,,,,,,,,,,,,,,,,,,,,,,,,,,,,,,,,,,,,,,,,,,,,,,,2015_Jun_22_2102,59.9754338752,LearningTask,10,9988,
-200,q,200,,,,,,,,,,,,,,,,,0,0,0,0,15,3,63,1,,,,,,,,,,,,,,,,,,,,,,,,,,,,,q,1,0.435049057007,None,0,0.5,diamondwhite.gif,stop,,,,,,,,,,,,,,,,,,,,,,,,,,,,,,,,0.71,0.513715982437,0.000962972640991,0.435049057007,1,q,314.646008968,,,,,,,,,,,,,,,,,,,,,,,,,,,,,,,,,,,,,,,,,,,,,,,,,,,,,,2015_Jun_22_2102,59.9754338752,LearningTask,10,9988,
200,w,200,,,,,,,,,,,,,,,,,0,0,0,0,16,0,64,0,,,,,,,,,,,,,,,,,,,,,,,,,,,,,w,1,0.301416158676,None,0,2.0,triangleorange.gif,go,,,,,,,,,,,,,,,,,,,,,,,,,,,,,,,,0,0.51127409935,0.00121808052063,0.301416158676,1,w,317.64647913,,,,,,,,,,,,,,,,,,,,,,,,,,,,,,,,,,,,,,,,,,,,,,,,,,,,,,2015_Jun_22_2102,59.9754338752,LearningTask,10,9988,
200,s,-200,,,,,,,,,,,,,,,,,0,0,0,0,16,1,65,2,,,,,,,,,,,,,,,,,,,,,,,,,,,,,s,1,0.384907007217,None,0,2.0,triangleorange.gif,go,,,,,,,,,,,,,,,,,,,,,,,,,,,,,,,,1.76,0.510879039764,0.00125598907471,0.384907007217,1,s,320.646834135,,,,,,,,,,,,,,,,,,,,,,,,,,,,,,,,,,,,,,,,,,,,,,,,,,,,,,2015_Jun_22_2102,59.9754338752,LearningTask,10,9988,
-200,q,200,,,,,,,,,,,,,,,,,0,0,0,0,16,2,66,1,,,,,,,,,,,,,,,,,,,,,,,,,,,,,q,1,0.451927900314,None,0,1.0,crossblue.gif,go,,,,,,,,,,,,,,,,,,,,,,,,,,,,,,,,1.03,0.510652065277,0.00120997428894,0.451927900314,1,q,323.646496058,,,,,,,,,,,,,,,,,,,,,,,,,,,,,,,,,,,,,,,,,,,,,,,,,,,,,,2015_Jun_22_2102,59.9754338752,LearningTask,10,9988,
-200,q,200,,,,,,,,,,,,,,,,,0,0,0,0,16,3,67,1,,,,,,,,,,,,,,,,,,,,,,,,,,,,,q,1,0.467420101166,None,0,0.5,diamondwhite.gif,stop,,,,,,,,,,,,,,,,,,,,,,,,,,,,,,,,0.67,0.512060880661,0.0012309551239,0.467420101166,1,q,326.647217035,,,,,,,,,,,,,,,,,,,,,,,,,,,,,,,,,,,,,,,,,,,,,,,,,,,,,,2015_Jun_22_2102,59.9754338752,LearningTask,10,9988,
-200,q,200,,,,,,,,,,,,,,,,,0,0,0,0,17,0,68,1,,,,,,,,,,,,,,,,,,,,,,,,,,,,,q,1,0.517951011658,None,0,1.0,crossblue.gif,go,,,,,,,,,,,,,,,,,,,,,,,,,,,,,,,,1.07,0.510948896408,0.0012218952179,0.517951011658,1,q,329.647228003,,,,,,,,,,,,,,,,,,,,,,,,,,,,,,,,,,,,,,,,,,,,,,,,,,,,,,2015_Jun_22_2102,59.9754338752,LearningTask,10,9988,
200,w,200,,,,,,,,,,,,,,,,,0,0,0,0,17,1,69,0,,,,,,,,,,,,,,,,,,,,,,,,,,,,,w,1,0.499941825867,None,0,1.0,hexagongreen.gif,stop,,,,,,,,,,,,,,,,,,,,,,,,,,,,,,,,0.98,0.512387037277,0.00121307373047,0.499941825867,1,w,332.648468018,,,,,,,,,,,,,,,,,,,,,,,,,,,,,,,,,,,,,,,,,,,,,,,,,,,,,,2015_Jun_22_2102,59.9754338752,LearningTask,10,9988,
200,w,200,,,,,,,,,,,,,,,,,0,0,0,0,17,2,70,0,,,,,,,,,,,,,,,,,,,,,,,,,,,,,w,1,0.450630903244,None,0,2.0,triangleorange.gif,go,,,,,,,,,,,,,,,,,,,,,,,,,,,,,,,,2.22,0.511399030685,0.00116205215454,0.450630903244,1,w,335.648808002,,,,,,,,,,,,,,,,,,,,,,,,,,,,,,,,,,,,,,,,,,,,,,,,,,,,,,2015_Jun_22_2102,59.9754338752,LearningTask,10,9988,
-200,q,200,,,,,,,,,,,,,,,,,0,0,0,0,17,3,71,1,,,,,,,,,,,,,,,,,,,,,,,,,,,,,q,1,0.517373085022,None,0,2.0,triangleorange.gif,go,,,,,,,,,,,,,,,,,,,,,,,,,,,,,,,,1.87,0.511423110962,0.00121712684631,0.517373085022,1,q,338.649070978,,,,,,,,,,,,,,,,,,,,,,,,,,,,,,,,,,,,,,,,,,,,,,,,,,,,,,2015_Jun_22_2102,59.9754338752,LearningTask,10,9988,
200,s,-200,,,,,,,,,,,,,,,,,0,0,0,0,18,0,72,2,,,,,,,,,,,,,,,,,,,,,,,,,,,,,s,1,0.433479785919,None,0,2.0,circleyellow.gif,stop,,,,,,,,,,,,,,,,,,,,,,,,,,,,,,,,1.75,0.511832952499,0.00120687484741,0.433479785919,1,s,341.649286032,,,,,,,,,,,,,,,,,,,,,,,,,,,,,,,,,,,,,,,,,,,,,,,,,,,,,,2015_Jun_22_2102,59.9754338752,LearningTask,10,9988,
200,s,-200,,,,,,,,,,,,,,,,,0,0,0,0,18,1,73,2,,,,,,,,,,,,,,,,,,,,,,,,,,,,,s,1,0.433439970016,None,0,1.0,crossblue.gif,go,,,,,,,,,,,,,,,,,,,,,,,,,,,,,,,,0,0.512356042862,0.00116300582886,0.433439970016,1,s,344.650101185,,,,,,,,,,,,,,,,,,,,,,,,,,,,,,,,,,,,,,,,,,,,,,,,,,,,,,2015_Jun_22_2102,59.9754338752,LearningTask,10,9988,
-200,q,200,,,,,,,,,,,,,,,,,0,0,0,0,18,2,74,1,,,,,,,,,,,,,,,,,,,,,,,,,,,,,q,1,0.550393819809,None,0,4.0,linemagenta.gif,go,,,,,,,,,,,,,,,,,,,,,,,,,,,,,,,,0,0.511332035065,0.00115203857422,0.550393819809,1,q,347.650875092,,,,,,,,,,,,,,,,,,,,,,,,,,,,,,,,,,,,,,,,,,,,,,,,,,,,,,2015_Jun_22_2102,59.9754338752,LearningTask,10,9988,
200,w,200,,,,,,,,,,,,,,,,,0,0,0,0,18,3,75,0,,,,,,,,,,,,,,,,,,,,,,,,,,,,,w,1,0.484357833862,None,0,1.0,hexagongreen.gif,stop,,,,,,,,,,,,,,,,,,,,,,,,,,,,,,,,1.25,0.510172843933,0.00155687332153,0.484357833862,1,w,350.651134014,,,,,,,,,,,,,,,,,,,,,,,,,,,,,,,,,,,,,,,,,,,,,,,,,,,,,,2015_Jun_22_2102,59.9754338752,LearningTask,10,9988,
-200,a,-200,,,,,,,,,,,,,,,,,0,0,0,0,19,0,76,3,,,,,,,,,,,,,,,,,,,,,,,,,,,,,a,1,0.451137065887,None,0,2.0,triangleorange.gif,go,,,,,,,,,,,,,,,,,,,,,,,,,,,,,,,,1.8,0.510488986969,0.00141191482544,0.451137065887,1,a,353.650632143,,,,,,,,,,,,,,,,,,,,,,,,,,,,,,,,,,,,,,,,,,,,,,,,,,,,,,2015_Jun_22_2102,59.9754338752,LearningTask,10,9988,
-200,a,-200,,,,,,,,,,,,,,,,,0,0,0,0,19,1,77,3,,,,,,,,,,,,,,,,,,,,,,,,,,,,,a,1,0.451057195663,None,0,0.5,invertedtrianglegray.gif,go,,,,,,,,,,,,,,,,,,,,,,,,,,,,,,,,0.65,0.5119099617,0.00117301940918,0.451057195663,1,a,356.651597977,,,,,,,,,,,,,,,,,,,,,,,,,,,,,,,,,,,,,,,,,,,,,,,,,,,,,,2015_Jun_22_2102,59.9754338752,LearningTask,10,9988,
200,w,200,,,,,,,,,,,,,,,,,0,0,0,0,19,2,78,0,,,,,,,,,,,,,,,,,,,,,,,,,,,,,w,1,0.484678983688,None,0,1.0,hexagongreen.gif,stop,,,,,,,,,,,,,,,,,,,,,,,,,,,,,,,,0.86,0.511323928833,0.00121998786926,0.484678983688,1,w,359.651942968,,,,,,,,,,,,,,,,,,,,,,,,,,,,,,,,,,,,,,,,,,,,,,,,,,,,,,2015_Jun_22_2102,59.9754338752,LearningTask,10,9988,
-200,a,-200,,,,,,,,,,,,,,,,,0,0,0,0,19,3,79,3,,,,,,,,,,,,,,,,,,,,,,,,,,,,,a,1,0.450276136398,None,0,2.0,triangleorange.gif,go,,,,,,,,,,,,,,,,,,,,,,,,,,,,,,,,1.93,0.511872053146,0.00121998786926,0.450276136398,1,a,362.652757168,,,,,,,,,,,,,,,,,,,,,,,,,,,,,,,,,,,,,,,,,,,,,,,,,,,,,,2015_Jun_22_2102,59.9754338752,LearningTask,10,9988,
200,w,200,,,,,,,,,,,,,,,,,0,0,0,0,20,0,80,0,,,,,,,,,,,,,,,,,,,,,,,,,,,,,w,1,0.384248971939,None,0,0.5,invertedtrianglegray.gif,go,,,,,,,,,,,,,,,,,,,,,,,,,,,,,,,,0.66,0.510993003845,0.0012149810791,0.384248971939,1,w,365.652974129,,,,,,,,,,,,,,,,,,,,,,,,,,,,,,,,,,,,,,,,,,,,,,,,,,,,,,2015_Jun_22_2102,59.9754338752,LearningTask,10,9988,
200,w,200,,,,,,,,,,,,,,,,,0,0,0,0,20,1,81,0,,,,,,,,,,,,,,,,,,,,,,,,,,,,,w,1,0.41813993454,None,0,1.0,crossblue.gif,go,,,,,,,,,,,,,,,,,,,,,,,,,,,,,,,,0.93,0.5110039711,0.00120711326599,0.41813993454,1,w,368.653280973,,,,,,,,,,,,,,,,,,,,,,,,,,,,,,,,,,,,,,,,,,,,,,,,,,,,,,2015_Jun_22_2102,59.9754338752,LearningTask,10,9988,
-200,a,-200,,,,,,,,,,,,,,,,,0,0,0,0,20,2,82,3,,,,,,,,,,,,,,,,,,,,,,,,,,,,,a,1,0.550655126572,None,0,1.0,crossblue.gif,go,,,,,,,,,,,,,,,,,,,,,,,,,,,,,,,,0.94,0.51217007637,0.00125002861023,0.550655126572,1,a,371.653401136,,,,,,,,,,,,,,,,,,,,,,,,,,,,,,,,,,,,,,,,,,,,,,,,,,,,,,2015_Jun_22_2102,59.9754338752,LearningTask,10,9988,
-200,a,-200,,,,,,,,,,,,,,,,,0,0,0,0,20,3,83,3,,,,,,,,,,,,,,,,,,,,,,,,,,,,,a,1,0.484415054321,None,0,0.5,invertedtrianglegray.gif,go,,,,,,,,,,,,,,,,,,,,,,,,,,,,,,,,0.7,0.511723041534,0.00131297111511,0.484415054321,1,a,374.654738188,,,,,,,,,,,,,,,,,,,,,,,,,,,,,,,,,,,,,,,,,,,,,,,,,,,,,,2015_Jun_22_2102,59.9754338752,LearningTask,10,9988,
-200,q,200,,,,,,,,,,,,,,,,,0,0,0,0,21,0,84,1,,,,,,,,,,,,,,,,,,,,,,,,,,,,,q,1,0.467152118683,None,0,4.0,linemagenta.gif,go,,,,,,,,,,,,,,,,,,,,,,,,,,,,,,,,4.01,0.51051902771,0.00171399116516,0.467152118683,1,q,377.654112101,,,,,,,,,,,,,,,,,,,,,,,,,,,,,,,,,,,,,,,,,,,,,,,,,,,,,,2015_Jun_22_2102,59.9754338752,LearningTask,10,9988,
200,w,200,,,,,,,,,,,,,,,,,0,0,0,0,21,1,85,0,,,,,,,,,,,,,,,,,,,,,,,,,,,,,w,1,0.433504104614,None,0,2.0,circleyellow.gif,stop,,,,,,,,,,,,,,,,,,,,,,,,,,,,,,,,0,0.51224398613,0.00126481056213,0.433504104614,1,w,380.655179977,,,,,,,,,,,,,,,,,,,,,,,,,,,,,,,,,,,,,,,,,,,,,,,,,,,,,,2015_Jun_22_2102,59.9754338752,LearningTask,10,9988,
200,s,-200,,,,,,,,,,,,,,,,,0,0,0,0,21,2,86,2,,,,,,,,,,,,,,,,,,,,,,,,,,,,,s,1,0.418018102646,w,0,1.0,crossblue.gif,go,,,,,,,,0.788807153702,,,,,,,,,,,,,,,,,,,,,,,,0.92,0.511051893234,0.00114297866821,0.418018102646,1,s,383.65520215,,,,,,,,,,,,,,,,,,,,,,,,,,,,,,,,,,,,,,,,,,,,,,,,,,,,,,2015_Jun_22_2102,59.9754338752,LearningTask,10,9988,
200,s,-200,,,,,,,,,,,,,,,,,0,0,0,0,21,3,87,2,,,,,,,,,,,,,,,,,,,,,,,,,,,,,s,1,0.434719085693,None,0,2.0,circleyellow.gif,stop,,,,,,,,,,,,,,,,,,,,,,,,,,,,,,,,1.95,0.511380195618,0.00160312652588,0.434719085693,1,s,386.655194044,,,,,,,,,,,,,,,,,,,,,,,,,,,,,,,,,,,,,,,,,,,,,,,,,,,,,,2015_Jun_22_2102,59.9754338752,LearningTask,10,9988,
-200,a,-200,,,,,,,,,,,,,,,,,0,0,0,0,22,0,88,3,,,,,,,,,,,,,,,,,,,,,,,,,,,,,a,1,0.367844104767,None,0,1.0,hexagongreen.gif,stop,,,,,,,,,,,,,,,,,,,,,,,,,,,,,,,,1.22,0.511915922165,0.00119090080261,0.367844104767,1,a,389.656527042,,,,,,,,,,,,,,,,,,,,,,,,,,,,,,,,,,,,,,,,,,,,,,,,,,,,,,2015_Jun_22_2102,59.9754338752,LearningTask,10,9988,
200,s,-200,,,,,,,,,,,,,,,,,0,0,0,0,22,1,89,2,,,,,,,,,,,,,,,,,,,,,,,,,,,,,s,1,0.40086889267,None,0,2.0,triangleorange.gif,go,,,,,,,,,,,,,,,,,,,,,,,,,,,,,,,,0,0.511213779449,0.00118398666382,0.40086889267,1,s,392.656174183,,,,,,,,,,,,,,,,,,,,,,,,,,,,,,,,,,,,,,,,,,,,,,,,,,,,,,2015_Jun_22_2102,59.9754338752,LearningTask,10,9988,
200,w,200,,,,,,,,,,,,,,,,,0,0,0,0,22,2,90,0,,,,,,,,,,,,,,,,,,,,,,,,,,,,,w,1,0.38433098793,None,0,4.0,linemagenta.gif,go,,,,,,,,,,,,,,,,,,,,,,,,,,,,,,,,0,0.511842012405,0.0014181137085,0.38433098793,1,w,395.657130003,,,,,,,,,,,,,,,,,,,,,,,,,,,,,,,,,,,,,,,,,,,,,,,,,,,,,,2015_Jun_22_2102,59.9754338752,LearningTask,10,9988,
-200,a,-200,,,,,,,,,,,,,,,,,0,0,0,0,22,3,91,3,,,,,,,,,,,,,,,,,,,,,,,,,,,,,a,1,0.367079019547,None,0,4.0,linemagenta.gif,go,,,,,,,,,,,,,,,,,,,,,,,,,,,,,,,,4.18,0.511445999146,0.00120186805725,0.367079019547,1,a,398.657860041,,,,,,,,,,,,,,,,,,,,,,,,,,,,,,,,,,,,,,,,,,,,,,,,,,,,,,2015_Jun_22_2102,59.9754338752,LearningTask,10,9988,
-200,a,-200,,,,,,,,,,,,,,,,,0,0,0,0,23,0,92,3,,,,,,,,,,,,,,,,,,,,,,,,,,,,,a,1,0.300776958466,None,0,2.0,triangleorange.gif,go,,,,,,,,,,,,,,,,,,,,,,,,,,,,,,,,0,0.510589838028,0.00123190879822,0.451930999756,0,s,401.657787085,1.95,0.513486862183,0.00131988525391,0.300776958466,1,a,404.658905983,,,,,,,,,,,,,,,,,,,,,,,,,,,,,,,,,,,,,,,,,,,,,,,2015_Jun_22_2102,59.9754338752,LearningTask,10,9988,
200,s,-200,,,,,,,,,,,,,,,,,0,0,0,0,23,1,93,2,,,,,,,,,,,,,,,,,,,,,,,,,,,,,s,1,0.401302814484,None,0,1.0,crossblue.gif,go,,,,,,,,,,,,,,,,,,,,,,,,,,,,,,,,1.11,0.510936975479,0.00132083892822,0.401302814484,1,s,407.659471989,,,,,,,,,,,,,,,,,,,,,,,,,,,,,,,,,,,,,,,,,,,,,,,,,,,,,,2015_Jun_22_2102,59.9754338752,LearningTask,10,9988,
-200,q,200,,,,,,,,,,,,,,,,,0,0,0,0,23,2,94,1,,,,,,,,,,,,,,,,,,,,,,,,,,,,,q,1,0.484004974365,None,0,4.0,squarecyan.gif,stop,,,,,,,,,,,,,,,,,,,,,,,,,,,,,,,,3.96,0.510993003845,0.00116586685181,0.484004974365,1,q,410.659453154,,,,,,,,,,,,,,,,,,,,,,,,,,,,,,,,,,,,,,,,,,,,,,,,,,,,,,2015_Jun_22_2102,59.9754338752,LearningTask,10,9988,
-200,a,-200,,,,,,,,,,,,,,,,,0,0,0,0,23,3,95,3,,,,,,,,,,,,,,,,,,,,,,,,,,,,,a,1,0.434350967407,None,0,4.0,squarecyan.gif,stop,,,,,,,,,,,,,,,,,,,,,,,,,,,,,,,,0,0.510951042175,0.00121998786926,0.167778968811,0,w,413.659551144,3.87,0.513170957565,0.00133895874023,0.434350967407,1,a,416.659888029,,,,,,,,,,,,,,,,,,,,,,,,,,,,,,,,,,,,,,,,,,,,,,,2015_Jun_22_2102,59.9754338752,LearningTask,10,9988,
200,s,-200,,,,,,,,,,,,,,,,,0,0,0,0,24,0,96,2,,,,,,,,,,,,,,,,,,,,,,,,,,,,,s,1,0.484670877457,None,0,4.0,linemagenta.gif,go,,,,,,,,,,,,,,,,,,,,,,,,,,,,,,,,0,0.51198887825,0.00121784210205,0.484670877457,1,s,419.661045074,,,,,,,,,,,,,,,,,,,,,,,,,,,,,,,,,,,,,,,,,,,,,,,,,,,,,,2015_Jun_22_2102,59.9754338752,LearningTask,10,9988,
200,w,200,,,,,,,,,,,,,,,,,0,0,0,0,24,1,97,0,,,,,,,,,,,,,,,,,,,,,,,,,,,,,w,1,0.367770195007,None,0,1.0,hexagongreen.gif,stop,,,,,,,,,,,,,,,,,,,,,,,,,,,,,,,,0.84,0.51082611084,0.00122404098511,0.367770195007,1,w,422.661589146,,,,,,,,,,,,,,,,,,,,,,,,,,,,,,,,,,,,,,,,,,,,,,,,,,,,,,2015_Jun_22_2102,59.9754338752,LearningTask,10,9988,
-200,q,200,,,,,,,,,,,,,,,,,0,0,0,0,24,2,98,1,,,,,,,,,,,,,,,,,,,,,,,,,,,,,q,1,0.483875989914,None,0,0.5,diamondwhite.gif,stop,,,,,,,,,,,,,,,,,,,,,,,,,,,,,,,,0.3,0.51118016243,0.0011990070343,0.483875989914,1,q,425.661412001,,,,,,,,,,,,,,,,,,,,,,,,,,,,,,,,,,,,,,,,,,,,,,,,,,,,,,2015_Jun_22_2102,59.9754338752,LearningTask,10,9988,
-200,a,-200,,,,,,,,,,,,,,,,,0,0,0,0,24,3,99,3,,,,,,,,,,,,,,,,,,,,,,,,,,,,,a,1,0.450835943222,None,0,0.5,diamondwhite.gif,stop,,,,,,,,,,,,,,,,,,,,,,,,,,,,,,,,0.31,0.511386871338,0.00120186805725,0.450835943222,1,a,428.661942005,,,,,,,,,,,,,,,,,,,,,,,,,,,,,,,,,,,,,,,,,,,,,,,,,,,,,,2015_Jun_22_2102,59.9754338752,LearningTask,10,9988,
,,,,,,,,,,,,,,,,,,,0,0,0,0,,,,,,,,,,,,,,,,,,,,,,,,,,,,,,,,,,,,,,,,,,,,,,,,,,,,,,,,,,,,,,,,,,,,,,,,,,,,,,,,,,,,,,9,22.8479838371,,,,,,,,,,,,,,,,,,,,,,,,,,,,,,,,,,,,,,,,,,,,,2015_Jun_22_2102,59.9754338752,LearningTask,10,9988,
200,s,-200,,,,,,,,,,,,,,,,,1,0,1,0,0,0,0,2,,,,,,,,,,,,,,,,,,,,,,,,,,,,,s,1,0.434659004211,None,0,4.0,linemagenta.gif,go,,,,,,,,,,,,,,,,,,,,,,,,,,,,,,,,3.91,0.507242918015,0.00107502937317,0.434659004211,1,s,454.983016968,,,,,,,,,,,,,,,,,,,,,,,,,,,,,,,,,,,,,,,,,,,,,,,,,,,,,,2015_Jun_22_2102,59.9754338752,LearningTask,10,9988,
-200,q,200,,,,,,,,,,,,,,,,,1,0,1,0,0,1,1,1,,,,,,,,,,,,,,,,,,,,,,,,,,,,,q,1,0.567600011826,None,0,4.0,squarecyan.gif,stop,,,,,,,,,,,,,,,,,,,,,,,,,,,,,,,,4.1,0.51091003418,0.00121307373047,0.567600011826,1,q,457.982907057,,,,,,,,,,,,,,,,,,,,,,,,,,,,,,,,,,,,,,,,,,,,,,,,,,,,,,2015_Jun_22_2102,59.9754338752,LearningTask,10,9988,
-200,q,200,,,,,,,,,,,,,,,,,1,0,1,0,0,2,2,1,,,,,,,,,,,,,,,,,,,,,,,,,,,,,q,1,0.434719085693,None,0,4.0,linemagenta.gif,go,,,,,,,,,,,,,,,,,,,,,,,,,,,,,,,,4.07,0.510900974274,0.00122094154358,0.434719085693,1,q,460.982815981,,,,,,,,,,,,,,,,,,,,,,,,,,,,,,,,,,,,,,,,,,,,,,,,,,,,,,2015_Jun_22_2102,59.9754338752,LearningTask,10,9988,
200,s,-200,,,,,,,,,,,,,,,,,1,0,1,0,0,3,3,2,,,,,,,,,,,,,,,,,,,,,,,,,,,,,s,1,0.450475931168,None,0,2.0,triangleorange.gif,go,,,,,,,,,,,,,,,,,,,,,,,,,,,,,,,,2.05,0.5116751194,0.00130796432495,0.450475931168,1,s,463.983581066,,,,,,,,,,,,,,,,,,,,,,,,,,,,,,,,,,,,,,,,,,,,,,,,,,,,,,2015_Jun_22_2102,59.9754338752,LearningTask,10,9988,
-200,a,-200,,,,,,,,,,,,,,,,,1,0,1,0,1,0,4,3,,,,,,,,,,,,,,,,,,,,,,,,,,,,,a,1,0.417402982712,None,0,4.0,squarecyan.gif,stop,,,,,,,,,,,,,,,,,,,,,,,,,,,,,,,,0,0.511729001999,0.00119209289551,0.417402982712,1,a,466.984326124,,,,,,,,,,,,,,,,,,,,,,,,,,,,,,,,,,,,,,,,,,,,,,,,,,,,,,2015_Jun_22_2102,59.9754338752,LearningTask,10,9988,
-200,a,-200,,,,,,,,,,,,,,,,,1,0,1,0,1,1,5,3,,,,,,,,,,,,,,,,,,,,,,,,,,,,,a,1,0.398957967758,None,0,2.0,circleyellow.gif,stop,,,,,,,,,,,,,,,,,,,,,,,,,,,,,,,,0,0.511255025864,0.00127696990967,0.398957967758,1,a,469.985114098,,,,,,,,,,,,,,,,,,,,,,,,,,,,,,,,,,,,,,,,,,,,,,,,,,,,,,2015_Jun_22_2102,59.9754338752,LearningTask,10,9988,
-200,a,-200,,,,,,,,,,,,,,,,,1,0,1,0,1,2,6,3,,,,,,,,,,,,,,,,,,,,,,,,,,,,,a,1,0.418140172958,None,0,0.5,diamondwhite.gif,stop,,,,,,,,,,,,,,,,,,,,,,,,,,,,,,,,0.31,0.510855197906,0.00122117996216,0.418140172958,1,a,472.985365152,,,,,,,,,,,,,,,,,,,,,,,,,,,,,,,,,,,,,,,,,,,,,,,,,,,,,,2015_Jun_22_2102,59.9754338752,LearningTask,10,9988,
200,s,-200,,,,,,,,,,,,,,,,,1,0,1,0,1,3,7,2,,,,,,,,,,,,,,,,,,,,,,,,,,,,,s,1,0.400123119354,None,0,4.0,squarecyan.gif,stop,,,,,,,,,,,,,,,,,,,,,,,,,,,,,,,,0,0.511117935181,0.00120782852173,0.400123119354,1,s,475.985061169,,,,,,,,,,,,,,,,,,,,,,,,,,,,,,,,,,,,,,,,,,,,,,,,,,,,,,2015_Jun_22_2102,59.9754338752,LearningTask,10,9988,
200,w,200,,,,,,,,,,,,,,,,,1,0,1,0,2,0,8,0,,,,,,,,,,,,,,,,,,,,,,,,,,,,,w,1,0.434386014938,None,0,4.0,linemagenta.gif,go,,,,,,,,,,,,,,,,,,,,,,,,,,,,,,,,3.99,0.511449813843,0.00119280815125,0.434386014938,1,w,478.985318184,,,,,,,,,,,,,,,,,,,,,,,,,,,,,,,,,,,,,,,,,,,,,,,,,,,,,,2015_Jun_22_2102,59.9754338752,LearningTask,10,9988,
-200,q,200,,,,,,,,,,,,,,,,,1,0,1,0,2,1,9,1,,,,,,,,,,,,,,,,,,,,,,,,,,,,,q,1,0.717813968658,None,0,4.0,linemagenta.gif,go,,,,,,,,,,,,,,,,,,,,,,,,,,,,,,,,3.96,0.51208281517,0.00120687484741,0.717813968658,1,q,481.986160994,,,,,,,,,,,,,,,,,,,,,,,,,,,,,,,,,,,,,,,,,,,,,,,,,,,,,,2015_Jun_22_2102,59.9754338752,LearningTask,10,9988,
200,s,-200,,,,,,,,,,,,,,,,,1,0,1,0,2,2,10,2,,,,,,,,,,,,,,,,,,,,,,,,,,,,,s,1,0.734577178955,None,0,2.0,circleyellow.gif,stop,,,,,,,,,,,,,,,,,,,,,,,,,,,,,,,,0,0.51073718071,0.00119400024414,0.734577178955,1,s,484.985609055,,,,,,,,,,,,,,,,,,,,,,,,,,,,,,,,,,,,,,,,,,,,,,,,,,,,,,2015_Jun_22_2102,59.9754338752,LearningTask,10,9988,
200,s,-200,,,,,,,,,,,,,,,,,1,0,1,0,2,3,11,2,,,,,,,,,,,,,,,,,,,,,,,,,,,,,s,1,0.384528875351,None,0,2.0,circleyellow.gif,stop,,,,,,,,,,,,,,,,,,,,,,,,,,,,,,,,1.89,0.512331962585,0.00123286247253,0.384528875351,1,s,487.986978054,,,,,,,,,,,,,,,,,,,,,,,,,,,,,,,,,,,,,,,,,,,,,,,,,,,,,,2015_Jun_22_2102,59.9754338752,LearningTask,10,9988,
-200,q,200,,,,,,,,,,,,,,,,,1,0,1,0,3,0,12,1,,,,,,,,,,,,,,,,,,,,,,,,,,,,,q,1,0.58437204361,None,0,4.0,squarecyan.gif,stop,,,,,,,,,,,,,,,,,,,,,,,,,,,,,,,,3.89,0.511656999588,0.00137901306152,0.58437204361,1,q,490.984879971,,,,,,,,,,,,,,,,,,,,,,,,,,,,,,,,,,,,,,,,,,,,,,,,,,,,,,2015_Jun_22_2102,59.9754338752,LearningTask,10,9988,
-200,q,200,,,,,,,,,,,,,,,,,1,0,1,0,3,1,13,1,,,,,,,,,,,,,,,,,,,,,,,,,,,,,q,1,0.533967971802,None,0,1.0,hexagongreen.gif,stop,,,,,,,,,,,,,,,,,,,,,,,,,,,,,,,,1.08,0.514206886292,0.00116491317749,0.533967971802,1,q,493.987647057,,,,,,,,,,,,,,,,,,,,,,,,,,,,,,,,,,,,,,,,,,,,,,,,,,,,,,2015_Jun_22_2102,59.9754338752,LearningTask,10,9988,
200,s,-200,,,,,,,,,,,,,,,,,1,0,1,0,3,2,14,2,,,,,,,,,,,,,,,,,,,,,,,,,,,,,s,1,0.333914995193,None,0,4.0,squarecyan.gif,stop,,,,,,,,,,,,,,,,,,,,,,,,,,,,,,,,3.83,0.511907100677,0.00120902061462,0.333914995193,1,s,496.988831043,,,,,,,,,,,,,,,,,,,,,,,,,,,,,,,,,,,,,,,,,,,,,,,,,,,,,,2015_Jun_22_2102,59.9754338752,LearningTask,10,9988,
-200,q,200,,,,,,,,,,,,,,,,,1,0,1,0,3,3,15,1,,,,,,,,,,,,,,,,,,,,,,,,,,,,,q,1,0.63047003746,None,0,2.0,circleyellow.gif,stop,,,,,,,,,,,,,,,,,,,,,,,,,,,,,,,,1.88,0.51038312912,0.00118207931519,0.63047003746,1,q,499.988656998,,,,,,,,,,,,,,,,,,,,,,,,,,,,,,,,,,,,,,,,,,,,,,,,,,,,,,2015_Jun_22_2102,59.9754338752,LearningTask,10,9988,
200,w,200,,,,,,,,,,,,,,,,,1,0,1,0,4,0,16,0,,,,,,,,,,,,,,,,,,,,,,,,,,,,,w,1,0.416203975677,None,0,4.0,squarecyan.gif,stop,,,,,,,,,,,,,,,,,,,,,,,,,,,,,,,,4.01,0.511309146881,0.00122904777527,0.416203975677,1,w,502.989569187,,,,,,,,,,,,,,,,,,,,,,,,,,,,,,,,,,,,,,,,,,,,,,,,,,,,,,2015_Jun_22_2102,59.9754338752,LearningTask,10,9988,
-200,a,-200,,,,,,,,,,,,,,,,,1,0,1,0,4,1,17,3,,,,,,,,,,,,,,,,,,,,,,,,,,,,,a,1,0.582508087158,None,0,4.0,linemagenta.gif,go,,,,,,,,,,,,,,,,,,,,,,,,,,,,,,,,4.09,0.509974956512,0.00117492675781,0.582508087158,1,a,505.989653111,,,,,,,,,,,,,,,,,,,,,,,,,,,,,,,,,,,,,,,,,,,,,,,,,,,,,,2015_Jun_22_2102,59.9754338752,LearningTask,10,9988,
200,w,200,,,,,,,,,,,,,,,,,1,0,1,0,4,2,18,0,,,,,,,,,,,,,,,,,,,,,,,,,,,,,w,1,0.501099824905,None,0,0.5,invertedtrianglegray.gif,go,,,,,,,,,,,,,,,,,,,,,,,,,,,,,,,,0.37,0.511875152588,0.00118398666382,0.501099824905,1,w,508.989976168,,,,,,,,,,,,,,,,,,,,,,,,,,,,,,,,,,,,,,,,,,,,,,,,,,,,,,2015_Jun_22_2102,59.9754338752,LearningTask,10,9988,
-200,a,-200,,,,,,,,,,,,,,,,,1,0,1,0,4,3,19,3,,,,,,,,,,,,,,,,,,,,,,,,,,,,,a,1,0.383213996887,None,0,4.0,squarecyan.gif,stop,,,,,,,,,,,,,,,,,,,,,,,,,,,,,,,,3.97,0.511784076691,0.00161719322205,0.383213996887,1,a,511.990365982,,,,,,,,,,,,,,,,,,,,,,,,,,,,,,,,,,,,,,,,,,,,,,,,,,,,,,2015_Jun_22_2102,59.9754338752,LearningTask,10,9988,
200,s,-200,,,,,,,,,,,,,,,,,1,0,1,0,5,0,20,2,,,,,,,,,,,,,,,,,,,,,,,,,,,,,s,1,0.85107088089,None,0,1.0,hexagongreen.gif,stop,,,,,,,,,,,,,,,,,,,,,,,,,,,,,,,,0,0.511927127838,0.00114512443542,0.85107088089,1,s,514.990813017,,,,,,,,,,,,,,,,,,,,,,,,,,,,,,,,,,,,,,,,,,,,,,,,,,,,,,2015_Jun_22_2102,59.9754338752,LearningTask,10,9988,
-200,a,-200,,,,,,,,,,,,,,,,,1,0,1,0,5,1,21,3,,,,,,,,,,,,,,,,,,,,,,,,,,,,,a,1,0.366117954254,None,0,0.5,diamondwhite.gif,stop,,,,,,,,,,,,,,,,,,,,,,,,,,,,,,,,0,0.511999130249,0.00126194953918,0.366117954254,1,a,517.991827011,,,,,,,,,,,,,,,,,,,,,,,,,,,,,,,,,,,,,,,,,,,,,,,,,,,,,,2015_Jun_22_2102,59.9754338752,LearningTask,10,9988,
-200,a,-200,,,,,,,,,,,,,,,,,1,0,1,0,5,2,22,3,,,,,,,,,,,,,,,,,,,,,,,,,,,,,a,1,0.416918039322,None,0,1.0,hexagongreen.gif,stop,,,,,,,,,,,,,,,,,,,,,,,,,,,,,,,,1.23,0.511560916901,0.00117301940918,0.416918039322,1,a,520.991036177,,,,,,,,,,,,,,,,,,,,,,,,,,,,,,,,,,,,,,,,,,,,,,,,,,,,,,2015_Jun_22_2102,59.9754338752,LearningTask,10,9988,
-200,q,200,,,,,,,,,,,,,,,,,1,0,1,0,5,3,23,1,,,,,,,,,,,,,,,,,,,,,,,,,,,,,q,1,0.466250181198,None,0,0.5,diamondwhite.gif,stop,,,,,,,,,,,,,,,,,,,,,,,,,,,,,,,,0.6,0.512656927109,0.0012059211731,0.466250181198,1,q,523.992484093,,,,,,,,,,,,,,,,,,,,,,,,,,,,,,,,,,,,,,,,,,,,,,,,,,,,,,2015_Jun_22_2102,59.9754338752,LearningTask,10,9988,
-200,a,-200,,,,,,,,,,,,,,,,,1,0,1,0,6,0,24,3,,,,,,,,,,,,,,,,,,,,,,,,,,,,,a,1,0.533489227295,None,0,4.0,squarecyan.gif,stop,,,,,,,,,,,,,,,,,,,,,,,,,,,,,,,,0,0.510574102402,0.00118708610535,0.533489227295,1,a,526.992931128,,,,,,,,,,,,,,,,,,,,,,,,,,,,,,,,,,,,,,,,,,,,,,,,,,,,,,2015_Jun_22_2102,59.9754338752,LearningTask,10,9988,
200,s,-200,,,,,,,,,,,,,,,,,1,0,1,0,6,1,25,2,,,,,,,,,,,,,,,,,,,,,,,,,,,,,s,1,0.616446018219,None,0,1.0,crossblue.gif,go,,,,,,,,,,,,,,,,,,,,,,,,,,,,,,,,1.14,0.511267900467,0.00119996070862,0.616446018219,1,s,529.989578009,,,,,,,,,,,,,,,,,,,,,,,,,,,,,,,,,,,,,,,,,,,,,,,,,,,,,,2015_Jun_22_2102,59.9754338752,LearningTask,10,9988,
-200,q,200,,,,,,,,,,,,,,,,,1,0,1,0,6,2,26,1,,,,,,,,,,,,,,,,,,,,,,,,,,,,,q,1,0.433917999268,None,0,0.5,diamondwhite.gif,stop,,,,,,,,,,,,,,,,,,,,,,,,,,,,,,,,0.75,0.515022993088,0.00173211097717,0.433917999268,1,q,532.994002104,,,,,,,,,,,,,,,,,,,,,,,,,,,,,,,,,,,,,,,,,,,,,,,,,,,,,,2015_Jun_22_2102,59.9754338752,LearningTask,10,9988,
200,w,200,,,,,,,,,,,,,,,,,1,0,1,0,6,3,27,0,,,,,,,,,,,,,,,,,,,,,,,,,,,,,w,1,0.417641878128,None,0,4.0,linemagenta.gif,go,,,,,,,,,,,,,,,,,,,,,,,,,,,,,,,,3.94,0.510928869247,0.00119996070862,0.417641878128,1,w,535.993935108,,,,,,,,,,,,,,,,,,,,,,,,,,,,,,,,,,,,,,,,,,,,,,,,,,,,,,2015_Jun_22_2102,59.9754338752,LearningTask,10,9988,
200,s,-200,,,,,,,,,,,,,,,,,1,0,1,0,7,0,28,2,,,,,,,,,,,,,,,,,,,,,,,,,,,,,s,1,0.470786809921,None,0,1.0,crossblue.gif,go,,,,,,,,,,,,,,,,,,,,,,,,,,,,,,,,0.79,0.50877904892,0.0012059211731,0.470786809921,1,s,538.992000103,,,,,,,,,,,,,,,,,,,,,,,,,,,,,,,,,,,,,,,,,,,,,,,,,,,,,,2015_Jun_22_2102,59.9754338752,LearningTask,10,9988,
200,w,200,,,,,,,,,,,,,,,,,1,0,1,0,7,1,29,0,,,,,,,,,,,,,,,,,,,,,,,,,,,,,w,1,0.43399810791,None,0,0.5,invertedtrianglegray.gif,go,,,,,,,,,,,,,,,,,,,,,,,,,,,,,,,,0,0.513638973236,0.00117182731628,0.43399810791,1,w,541.995095015,,,,,,,,,,,,,,,,,,,,,,,,,,,,,,,,,,,,,,,,,,,,,,,,,,,,,,2015_Jun_22_2102,59.9754338752,LearningTask,10,9988,
200,w,200,,,,,,,,,,,,,,,,,1,0,1,0,7,2,30,0,,,,,,,,,,,,,,,,,,,,,,,,,,,,,w,1,0.399697065353,None,0,1.0,hexagongreen.gif,stop,,,,,,,,,,,,,,,,,,,,,,,,,,,,,,,,1.08,0.511672019958,0.00125813484192,0.399697065353,1,w,544.995674133,,,,,,,,,,,,,,,,,,,,,,,,,,,,,,,,,,,,,,,,,,,,,,,,,,,,,,2015_Jun_22_2102,59.9754338752,LearningTask,10,9988,
-200,a,-200,,,,,,,,,,,,,,,,,1,0,1,0,7,3,31,3,,,,,,,,,,,,,,,,,,,,,,,,,,,,,a,1,0.58651804924,None,0,0.5,invertedtrianglegray.gif,go,,,,,,,,,,,,,,,,,,,,,,,,,,,,,,,,0,0.508008003235,0.00118923187256,0.58651804924,1,a,547.995983124,,,,,,,,,,,,,,,,,,,,,,,,,,,,,,,,,,,,,,,,,,,,,,,,,,,,,,2015_Jun_22_2102,59.9754338752,LearningTask,10,9988,
200,s,-200,,,,,,,,,,,,,,,,,1,0,1,0,8,0,32,2,,,,,,,,,,,,,,,,,,,,,,,,,,,,,s,1,0.401304006577,None,0,1.0,crossblue.gif,go,,,,,,,,,,,,,,,,,,,,,,,,,,,,,,,,0.81,0.511341094971,0.0012001991272,0.401304006577,1,s,550.995738029,,,,,,,,,,,,,,,,,,,,,,,,,,,,,,,,,,,,,,,,,,,,,,,,,,,,,,2015_Jun_22_2102,59.9754338752,LearningTask,10,9988,
200,w,200,,,,,,,,,,,,,,,,,1,0,1,0,8,1,33,0,,,,,,,,,,,,,,,,,,,,,,,,,,,,,w,1,0.43256020546,None,0,2.0,circleyellow.gif,stop,,,,,,,,,,,,,,,,,,,,,,,,,,,,,,,,2.2,0.50999212265,0.00126218795776,0.43256020546,1,w,553.995697975,,,,,,,,,,,,,,,,,,,,,,,,,,,,,,,,,,,,,,,,,,,,,,,,,,,,,,2015_Jun_22_2102,59.9754338752,LearningTask,10,9988,
-200,q,200,,,,,,,,,,,,,,,,,1,0,1,0,8,2,34,1,,,,,,,,,,,,,,,,,,,,,,,,,,,,,q,1,0.384439945221,None,0,0.5,diamondwhite.gif,stop,,,,,,,,,,,,,,,,,,,,,,,,,,,,,,,,0.35,0.512615919113,0.00108885765076,0.384439945221,1,q,556.994117975,,,,,,,,,,,,,,,,,,,,,,,,,,,,,,,,,,,,,,,,,,,,,,,,,,,,,,2015_Jun_22_2102,59.9754338752,LearningTask,10,9988,
200,s,-200,,,,,,,,,,,,,,,,,1,0,1,0,8,3,35,2,,,,,,,,,,,,,,,,,,,,,,,,,,,,,s,1,0.419661045074,None,0,2.0,circleyellow.gif,stop,,,,,,,,,,,,,,,,,,,,,,,,,,,,,,,,2.23,0.511672973633,0.00111508369446,0.419661045074,1,s,559.997797012,,,,,,,,,,,,,,,,,,,,,,,,,,,,,,,,,,,,,,,,,,,,,,,,,,,,,,2015_Jun_22_2102,59.9754338752,LearningTask,10,9988,
-200,a,-200,,,,,,,,,,,,,,,,,1,0,1,0,9,0,36,3,,,,,,,,,,,,,,,,,,,,,,,,,,,,,a,1,0.451272010803,None,0,0.5,invertedtrianglegray.gif,go,,,,,,,,,,,,,,,,,,,,,,,,,,,,,,,,0.66,0.510607004166,0.00121307373047,0.451272010803,1,a,562.997750044,,,,,,,,,,,,,,,,,,,,,,,,,,,,,,,,,,,,,,,,,,,,,,,,,,,,,,2015_Jun_22_2102,59.9754338752,LearningTask,10,9988,
-200,q,200,,,,,,,,,,,,,,,,,1,0,1,0,9,1,37,1,,,,,,,,,,,,,,,,,,,,,,,,,,,,,q,1,0.381410837173,None,0,2.0,circleyellow.gif,stop,,,,,,,,,,,,,,,,,,,,,,,,,,,,,,,,2.07,0.51144194603,0.00122094154358,0.381410837173,1,q,565.997028112,,,,,,,,,,,,,,,,,,,,,,,,,,,,,,,,,,,,,,,,,,,,,,,,,,,,,,2015_Jun_22_2102,59.9754338752,LearningTask,10,9988,
-200,q,200,,,,,,,,,,,,,,,,,1,0,1,0,9,2,38,1,,,,,,,,,,,,,,,,,,,,,,,,,,,,,q,1,0.467154026031,None,0,2.0,triangleorange.gif,go,,,,,,,,,,,,,,,,,,,,,,,,,,,,,,,,1.88,0.511287212372,0.00120115280151,0.467154026031,1,q,568.996307135,,,,,,,,,,,,,,,,,,,,,,,,,,,,,,,,,,,,,,,,,,,,,,,,,,,,,,2015_Jun_22_2102,59.9754338752,LearningTask,10,9988,
200,w,200,,,,,,,,,,,,,,,,,1,0,1,0,9,3,39,0,,,,,,,,,,,,,,,,,,,,,,,,,,,,,w,1,0.38059592247,None,0,1.0,crossblue.gif,go,,,,,,,,,,,,,,,,,,,,,,,,,,,,,,,,1.17,0.513837099075,0.00118899345398,0.38059592247,1,w,571.995470047,,,,,,,,,,,,,,,,,,,,,,,,,,,,,,,,,,,,,,,,,,,,,,,,,,,,,,2015_Jun_22_2102,59.9754338752,LearningTask,10,9988,
200,w,200,,,,,,,,,,,,,,,,,1,0,1,0,10,0,40,0,,,,,,,,,,,,,,,,,,,,,,,,,,,,,w,1,0.699969053268,None,0,4.0,squarecyan.gif,stop,,,,,,,,,,,,,,,,,,,,,,,,,,,,,,,,0,0.514045953751,0.00121307373047,0.699969053268,1,w,574.998057127,,,,,,,,,,,,,,,,,,,,,,,,,,,,,,,,,,,,,,,,,,,,,,,,,,,,,,2015_Jun_22_2102,59.9754338752,LearningTask,10,9988,
-200,q,200,,,,,,,,,,,,,,,,,1,0,1,0,10,1,41,1,,,,,,,,,,,,,,,,,,,,,,,,,,,,,q,1,0.381366968155,None,0,2.0,circleyellow.gif,stop,,,,,,,,,,,,,,,,,,,,,,,,,,,,,,,,2.17,0.512657880783,0.00122499465942,0.381366968155,1,q,578.000365019,,,,,,,,,,,,,,,,,,,,,,,,,,,,,,,,,,,,,,,,,,,,,,,,,,,,,,2015_Jun_22_2102,59.9754338752,LearningTask,10,9988,
-200,a,-200,,,,,,,,,,,,,,,,,1,0,1,0,10,2,42,3,,,,,,,,,,,,,,,,,,,,,,,,,,,,,a,1,0.481737136841,None,0,4.0,linemagenta.gif,go,,,,,,,,,,,,,,,,,,,,,,,,,,,,,,,,4.03,0.511518001556,0.00116205215454,0.481737136841,1,a,580.999644041,,,,,,,,,,,,,,,,,,,,,,,,,,,,,,,,,,,,,,,,,,,,,,,,,,,,,,2015_Jun_22_2102,59.9754338752,LearningTask,10,9988,
200,s,-200,,,,,,,,,,,,,,,,,1,0,1,0,10,3,43,2,,,,,,,,,,,,,,,,,,,,,,,,,,,,,s,1,0.569319963455,None,0,0.5,invertedtrianglegray.gif,go,,,,,,,,,,,,,,,,,,,,,,,,,,,,,,,,0.39,0.508364915848,0.0012788772583,0.569319963455,1,s,583.998847961,,,,,,,,,,,,,,,,,,,,,,,,,,,,,,,,,,,,,,,,,,,,,,,,,,,,,,2015_Jun_22_2102,59.9754338752,LearningTask,10,9988,
-200,q,200,,,,,,,,,,,,,,,,,1,0,1,0,11,0,44,1,,,,,,,,,,,,,,,,,,,,,,,,,,,,,q,1,0.364643096924,None,0,0.5,diamondwhite.gif,stop,,,,,,,,,,,,,,,,,,,,,,,,,,,,,,,,0.33,0.513738155365,0.00130701065063,0.364643096924,1,q,587.00088501,,,,,,,,,,,,,,,,,,,,,,,,,,,,,,,,,,,,,,,,,,,,,,,,,,,,,,2015_Jun_22_2102,59.9754338752,LearningTask,10,9988,
200,w,200,,,,,,,,,,,,,,,,,1,0,1,0,11,1,45,0,,,,,,,,,,,,,,,,,,,,,,,,,,,,,w,1,0.369477033615,None,0,2.0,triangleorange.gif,go,,,,,,,,,,,,,,,,,,,,,,,,,,,,,,,,2.18,0.509725093842,0.0012800693512,0.369477033615,1,w,590.002416134,,,,,,,,,,,,,,,,,,,,,,,,,,,,,,,,,,,,,,,,,,,,,,,,,,,,,,2015_Jun_22_2102,59.9754338752,LearningTask,10,9988,
-200,q,200,,,,,,,,,,,,,,,,,1,0,1,0,11,2,46,1,,,,,,,,,,,,,,,,,,,,,,,,,,,,,q,1,0.738027095795,None,0,2.0,circleyellow.gif,stop,,,,,,,,,,,,,,,,,,,,,,,,,,,,,,,,2.23,0.507070064545,0.00167012214661,0.738027095795,1,q,592.998660088,,,,,,,,,,,,,,,,,,,,,,,,,,,,,,,,,,,,,,,,,,,,,,,,,,,,,,2015_Jun_22_2102,59.9754338752,LearningTask,10,9988,
-200,q,200,,,,,,,,,,,,,,,,,1,0,1,0,11,3,47,1,,,,,,,,,,,,,,,,,,,,,,,,,,,,,q,1,0.53376698494,None,0,2.0,triangleorange.gif,go,,,,,,,,,,,,,,,,,,,,,,,,,,,,,,,,0,0.513156175613,0.00117206573486,0.53376698494,1,q,596.001286983,,,,,,,,,,,,,,,,,,,,,,,,,,,,,,,,,,,,,,,,,,,,,,,,,,,,,,2015_Jun_22_2102,59.9754338752,LearningTask,10,9988,
200,w,200,,,,,,,,,,,,,,,,,1,0,1,0,12,0,48,0,,,,,,,,,,,,,,,,,,,,,,,,,,,,,w,1,0.366390943527,None,0,2.0,circleyellow.gif,stop,,,,,,,,,,,,,,,,,,,,,,,,,,,,,,,,2.13,0.513409852982,0.00120282173157,0.366390943527,1,w,599.000022173,,,,,,,,,,,,,,,,,,,,,,,,,,,,,,,,,,,,,,,,,,,,,,,,,,,,,,2015_Jun_22_2102,59.9754338752,LearningTask,10,9988,
200,s,-200,,,,,,,,,,,,,,,,,1,0,1,0,12,1,49,2,,,,,,,,,,,,,,,,,,,,,,,,,,,,,s,1,0.365056037903,None,0,2.0,circleyellow.gif,stop,,,,,,,,,,,,,,,,,,,,,,,,,,,,,,,,0,0.51510310173,0.00119805335999,0.365056037903,1,s,602.002401114,,,,,,,,,,,,,,,,,,,,,,,,,,,,,,,,,,,,,,,,,,,,,,,,,,,,,,2015_Jun_22_2102,59.9754338752,LearningTask,10,9988,
200,s,-200,,,,,,,,,,,,,,,,,1,0,1,0,12,2,50,2,,,,,,,,,,,,,,,,,,,,,,,,,,,,,s,1,0.402148962021,None,0,4.0,squarecyan.gif,stop,,,,,,,,,,,,,,,,,,,,,,,,,,,,,,,,3.8,0.511210918427,0.0011899471283,0.402148962021,1,s,605.004593134,,,,,,,,,,,,,,,,,,,,,,,,,,,,,,,,,,,,,,,,,,,,,,,,,,,,,,2015_Jun_22_2102,59.9754338752,LearningTask,10,9988,
-200,a,-200,,,,,,,,,,,,,,,,,1,0,1,0,12,3,51,3,,,,,,,,,,,,,,,,,,,,,,,,,,,,,a,1,0.400130033493,None,0,2.0,triangleorange.gif,go,,,,,,,,,,,,,,,,,,,,,,,,,,,,,,,,0,0.507299900055,0.00122499465942,0.400130033493,1,a,608.001738071,,,,,,,,,,,,,,,,,,,,,,,,,,,,,,,,,,,,,,,,,,,,,,,,,,,,,,2015_Jun_22_2102,59.9754338752,LearningTask,10,9988,
-200,a,-200,,,,,,,,,,,,,,,,,1,0,1,0,13,0,52,3,,,,,,,,,,,,,,,,,,,,,,,,,,,,,a,1,0.415881872177,None,0,0.5,diamondwhite.gif,stop,,,,,,,,,,,,,,,,,,,,,,,,,,,,,,,,0.73,0.513794898987,0.00118279457092,0.415881872177,1,a,611.005288124,,,,,,,,,,,,,,,,,,,,,,,,,,,,,,,,,,,,,,,,,,,,,,,,,,,,,,2015_Jun_22_2102,59.9754338752,LearningTask,10,9988,
-200,a,-200,,,,,,,,,,,,,,,,,1,0,1,0,13,1,53,3,,,,,,,,,,,,,,,,,,,,,,,,,,,,,a,1,0.41900396347,None,0,2.0,circleyellow.gif,stop,,,,,,,,,,,,,,,,,,,,,,,,,,,,,,,,2.25,0.507266044617,0.00119805335999,0.41900396347,1,a,614.002693176,,,,,,,,,,,,,,,,,,,,,,,,,,,,,,,,,,,,,,,,,,,,,,,,,,,,,,2015_Jun_22_2102,59.9754338752,LearningTask,10,9988,
200,s,-200,,,,,,,,,,,,,,,,,1,0,1,0,13,2,54,2,,,,,,,,,,,,,,,,,,,,,,,,,,,,,s,1,0.384031057358,None,0,1.0,crossblue.gif,go,,,,,,,,,,,,,,,,,,,,,,,,,,,,,,,,0.87,0.510790109634,0.00124907493591,0.384031057358,1,s,617.002173185,,,,,,,,,,,,,,,,,,,,,,,,,,,,,,,,,,,,,,,,,,,,,,,,,,,,,,2015_Jun_22_2102,59.9754338752,LearningTask,10,9988,
-200,q,200,,,,,,,,,,,,,,,,,1,0,1,0,13,3,55,1,,,,,,,,,,,,,,,,,,,,,,,,,,,,,q,1,0.454122781754,None,0,2.0,triangleorange.gif,go,,,,,,,,,,,,,,,,,,,,,,,,,,,,,,,,1.88,0.5119099617,0.00131487846375,0.454122781754,1,q,620.005668163,,,,,,,,,,,,,,,,,,,,,,,,,,,,,,,,,,,,,,,,,,,,,,,,,,,,,,2015_Jun_22_2102,59.9754338752,LearningTask,10,9988,
-200,q,200,,,,,,,,,,,,,,,,,1,0,1,0,14,0,56,1,,,,,,,,,,,,,,,,,,,,,,,,,,,,,q,1,0.431726932526,None,0,4.0,linemagenta.gif,go,,,,,,,,,,,,,,,,,,,,,,,,,,,,,,,,4.15,0.511256933212,0.00116300582886,0.431726932526,1,q,623.005723,,,,,,,,,,,,,,,,,,,,,,,,,,,,,,,,,,,,,,,,,,,,,,,,,,,,,,2015_Jun_22_2102,59.9754338752,LearningTask,10,9988,
-200,a,-200,,,,,,,,,,,,,,,,,1,0,1,0,14,1,57,3,,,,,,,,,,,,,,,,,,,,,,,,,,,,,a,1,0.447557926178,None,0,2.0,circleyellow.gif,stop,,,,,,,,,,,,,,,,,,,,,,,,,,,,,,,,0,0.512645959854,0.00117802619934,0.447557926178,1,a,626.005616188,,,,,,,,,,,,,,,,,,,,,,,,,,,,,,,,,,,,,,,,,,,,,,,,,,,,,,2015_Jun_22_2102,59.9754338752,LearningTask,10,9988,
200,w,200,,,,,,,,,,,,,,,,,1,0,1,0,14,2,58,0,,,,,,,,,,,,,,,,,,,,,,,,,,,,,w,1,0.452214956284,None,0,1.0,crossblue.gif,go,,,,,,,,,,,,,,,,,,,,,,,,,,,,,,,,1.19,0.50998210907,0.00118207931519,0.452214956284,1,w,629.005947113,,,,,,,,,,,,,,,,,,,,,,,,,,,,,,,,,,,,,,,,,,,,,,,,,,,,,,2015_Jun_22_2102,59.9754338752,LearningTask,10,9988,
-200,q,200,,,,,,,,,,,,,,,,,1,0,1,0,14,3,59,1,,,,,,,,,,,,,,,,,,,,,,,,,,,,,q,1,0.471114873886,None,0,2.0,circleyellow.gif,stop,,,,,,,,,,,,,,,,,,,,,,,,,,,,,,,,0,0.509647846222,0.00119090080261,0.471114873886,1,q,632.006132126,,,,,,,,,,,,,,,,,,,,,,,,,,,,,,,,,,,,,,,,,,,,,,,,,,,,,,2015_Jun_22_2102,59.9754338752,LearningTask,10,9988,
200,w,200,,,,,,,,,,,,,,,,,1,0,1,0,15,0,60,0,,,,,,,,,,,,,,,,,,,,,,,,,,,,,w,1,0.467380046844,None,0,1.0,hexagongreen.gif,stop,,,,,,,,,,,,,,,,,,,,,,,,,,,,,,,,0.94,0.510040044785,0.00139808654785,0.467380046844,1,w,635.005571127,,,,,,,,,,,,,,,,,,,,,,,,,,,,,,,,,,,,,,,,,,,,,,,,,,,,,,2015_Jun_22_2102,59.9754338752,LearningTask,10,9988,
200,w,200,,,,,,,,,,,,,,,,,1,0,1,0,15,1,61,0,,,,,,,,,,,,,,,,,,,,,,,,,,,,,w,1,0.382911920547,None,0,4.0,linemagenta.gif,go,,,,,,,,,,,,,,,,,,,,,,,,,,,,,,,,0,0.512368917465,0.0011899471283,0.382911920547,1,w,638.00611496,,,,,,,,,,,,,,,,,,,,,,,,,,,,,,,,,,,,,,,,,,,,,,,,,,,,,,2015_Jun_22_2102,59.9754338752,LearningTask,10,9988,
200,w,200,,,,,,,,,,,,,,,,,1,0,1,0,15,2,62,0,,,,,,,,,,,,,,,,,,,,,,,,,,,,,w,1,0.437853097916,None,0,0.5,invertedtrianglegray.gif,go,,,,,,,,,,,,,,,,,,,,,,,,,,,,,,,,0,0.51086306572,0.00119495391846,0.437853097916,1,w,641.008416176,,,,,,,,,,,,,,,,,,,,,,,,,,,,,,,,,,,,,,,,,,,,,,,,,,,,,,2015_Jun_22_2102,59.9754338752,LearningTask,10,9988,
200,s,-200,,,,,,,,,,,,,,,,,1,0,1,0,15,3,63,2,,,,,,,,,,,,,,,,,,,,,,,,,,,,,s,1,0.367295026779,None,0,0.5,diamondwhite.gif,stop,,,,,,,,,,,,,,,,,,,,,,,,,,,,,,,,0.62,0.508980989456,0.0011727809906,0.367295026779,1,s,644.006333113,,,,,,,,,,,,,,,,,,,,,,,,,,,,,,,,,,,,,,,,,,,,,,,,,,,,,,2015_Jun_22_2102,59.9754338752,LearningTask,10,9988,
-200,q,200,,,,,,,,,,,,,,,,,1,0,1,0,16,0,64,1,,,,,,,,,,,,,,,,,,,,,,,,,,,,,q,1,0.28457403183,None,0,2.0,triangleorange.gif,go,,,,,,,,,,,,,,,,,,,,,,,,,,,,,,,,0,0.513226985931,0.0013439655304,0.465713024139,0,w,647.007708073,2.08,0.512387037277,0.00135087966919,0.28457403183,1,q,650.009392977,,,,,,,,,,,,,,,,,,,,,,,,,,,,,,,,,,,,,,,,,,,,,,,2015_Jun_22_2102,59.9754338752,LearningTask,10,9988,
200,s,-200,,,,,,,,,,,,,,,,,1,0,1,0,16,1,65,2,,,,,,,,,,,,,,,,,,,,,,,,,,,,,s,1,0.418035984039,None,0,2.0,triangleorange.gif,go,,,,,,,,,,,,,,,,,,,,,,,,,,,,,,,,1.83,0.511296033859,0.00117611885071,0.418035984039,1,s,653.008910179,,,,,,,,,,,,,,,,,,,,,,,,,,,,,,,,,,,,,,,,,,,,,,,,,,,,,,2015_Jun_22_2102,59.9754338752,LearningTask,10,9988,
200,w,200,,,,,,,,,,,,,,,,,1,0,1,0,16,2,66,0,,,,,,,,,,,,,,,,,,,,,,,,,,,,,w,1,0.536245822906,None,0,4.0,squarecyan.gif,stop,,,,,,,,,,,,,,,,,,,,,,,,,,,,,,,,3.94,0.510376930237,0.0012378692627,0.536245822906,1,w,656.008167028,,,,,,,,,,,,,,,,,,,,,,,,,,,,,,,,,,,,,,,,,,,,,,,,,,,,,,2015_Jun_22_2102,59.9754338752,LearningTask,10,9988,
200,w,200,,,,,,,,,,,,,,,,,1,0,1,0,16,3,67,0,,,,,,,,,,,,,,,,,,,,,,,,,,,,,w,1,0.469420909882,None,0,4.0,linemagenta.gif,go,,,,,,,,,,,,,,,,,,,,,,,,,,,,,,,,0,0.511333942413,0.00183081626892,0.469420909882,1,w,659.009739161,,,,,,,,,,,,,,,,,,,,,,,,,,,,,,,,,,,,,,,,,,,,,,,,,,,,,,2015_Jun_22_2102,59.9754338752,LearningTask,10,9988,
-200,a,-200,,,,,,,,,,,,,,,,,1,0,1,0,17,0,68,3,,,,,,,,,,,,,,,,,,,,,,,,,,,,,a,1,0.467237949371,None,0,1.0,crossblue.gif,go,,,,,,,,,,,,,,,,,,,,,,,,,,,,,,,,0.83,0.510859966278,0.00131893157959,0.467237949371,1,a,662.009296179,,,,,,,,,,,,,,,,,,,,,,,,,,,,,,,,,,,,,,,,,,,,,,,,,,,,,,2015_Jun_22_2102,59.9754338752,LearningTask,10,9988,
-200,a,-200,,,,,,,,,,,,,,,,,1,0,1,0,17,1,69,3,,,,,,,,,,,,,,,,,,,,,,,,,,,,,a,1,0.367266893387,None,0,2.0,triangleorange.gif,go,,,,,,,,,,,,,,,,,,,,,,,,,,,,,,,,0,0.510962963104,0.00118017196655,[],0,None,665.012101173,2.1,0.512132883072,0.00124597549438,0.367266893387,1,a,668.010599136,,,,,,,,,,,,,,,,,,,,,,,,,,,,,,,,,,,,,,,,,,,,,,,2015_Jun_22_2102,59.9754338752,LearningTask,10,9988,
-200,q,200,,,,,,,,,,,,,,,,,1,0,1,0,17,2,70,1,,,,,,,,,,,,,,,,,,,,,,,,,,,,,q,1,0.586013793945,None,0,4.0,linemagenta.gif,go,,,,,,,,,,,,,,,,,,,,,,,,,,,,,,,,4.09,0.510928153992,0.00117802619934,0.586013793945,1,q,671.010668039,,,,,,,,,,,,,,,,,,,,,,,,,,,,,,,,,,,,,,,,,,,,,,,,,,,,,,2015_Jun_22_2102,59.9754338752,LearningTask,10,9988,
-200,a,-200,,,,,,,,,,,,,,,,,1,0,1,0,17,3,71,3,,,,,,,,,,,,,,,,,,,,,,,,,,,,,a,1,0.501297950745,None,0,1.0,hexagongreen.gif,stop,,,,,,,,,,,,,,,,,,,,,,,,,,,,,,,,0,0.510859966278,0.00121402740479,0.501297950745,1,a,674.012413979,,,,,,,,,,,,,,,,,,,,,,,,,,,,,,,,,,,,,,,,,,,,,,,,,,,,,,2015_Jun_22_2102,59.9754338752,LearningTask,10,9988,
-200,q,200,,,,,,,,,,,,,,,,,1,0,1,0,18,0,72,1,,,,,,,,,,,,,,,,,,,,,,,,,,,,,q,1,0.383229970932,None,0,4.0,squarecyan.gif,stop,,,,,,,,,,,,,,,,,,,,,,,,,,,,,,,,0,0.510583877563,0.00116395950317,0.383229970932,1,q,677.012510061,,,,,,,,,,,,,,,,,,,,,,,,,,,,,,,,,,,,,,,,,,,,,,,,,,,,,,2015_Jun_22_2102,59.9754338752,LearningTask,10,9988,
-200,q,200,,,,,,,,,,,,,,,,,1,0,1,0,18,1,73,1,,,,,,,,,,,,,,,,,,,,,,,,,,,,,q,1,0.451097011566,None,0,2.0,triangleorange.gif,go,,,,,,,,,,,,,,,,,,,,,,,,,,,,,,,,0,0.510051965714,0.00119185447693,0.451097011566,1,q,680.012649059,,,,,,,,,,,,,,,,,,,,,,,,,,,,,,,,,,,,,,,,,,,,,,,,,,,,,,2015_Jun_22_2102,59.9754338752,LearningTask,10,9988,
200,w,200,,,,,,,,,,,,,,,,,1,0,1,0,18,2,74,0,,,,,,,,,,,,,,,,,,,,,,,,,,,,,w,1,0.401805877686,None,0,1.0,hexagongreen.gif,stop,,,,,,,,,,,,,,,,,,,,,,,,,,,,,,,,0.94,0.510727882385,0.00120496749878,0.401805877686,1,w,683.012310982,,,,,,,,,,,,,,,,,,,,,,,,,,,,,,,,,,,,,,,,,,,,,,,,,,,,,,2015_Jun_22_2102,59.9754338752,LearningTask,10,9988,
-200,a,-200,,,,,,,,,,,,,,,,,1,0,1,0,18,3,75,3,,,,,,,,,,,,,,,,,,,,,,,,,,,,,a,1,0.467891931534,None,0,4.0,squarecyan.gif,stop,,,,,,,,,,,,,,,,,,,,,,,,,,,,,,,,4.01,0.511258840561,0.00112795829773,0.467891931534,1,a,686.012854099,,,,,,,,,,,,,,,,,,,,,,,,,,,,,,,,,,,,,,,,,,,,,,,,,,,,,,2015_Jun_22_2102,59.9754338752,LearningTask,10,9988,
-200,q,200,,,,,,,,,,,,,,,,,1,0,1,0,19,0,76,1,,,,,,,,,,,,,,,,,,,,,,,,,,,,,q,1,0.384102106094,None,0,1.0,hexagongreen.gif,stop,,,,,,,,,,,,,,,,,,,,,,,,,,,,,,,,0,0.512047052383,0.00120806694031,0.384102106094,1,q,689.012567043,,,,,,,,,,,,,,,,,,,,,,,,,,,,,,,,,,,,,,,,,,,,,,,,,,,,,,2015_Jun_22_2102,59.9754338752,LearningTask,10,9988,
-200,q,200,,,,,,,,,,,,,,,,,1,0,1,0,19,1,77,1,,,,,,,,,,,,,,,,,,,,,,,,,,,,,q,1,0.383960008621,None,0,2.0,circleyellow.gif,stop,,,,,,,,,,,,,,,,,,,,,,,,,,,,,,,,0,0.511606216431,0.00116109848022,0.383960008621,1,q,692.013576984,,,,,,,,,,,,,,,,,,,,,,,,,,,,,,,,,,,,,,,,,,,,,,,,,,,,,,2015_Jun_22_2102,59.9754338752,LearningTask,10,9988,
200,s,-200,,,,,,,,,,,,,,,,,1,0,1,0,19,2,78,2,,,,,,,,,,,,,,,,,,,,,,,,,,,,,s,1,0.500050067902,None,0,0.5,diamondwhite.gif,stop,,,,,,,,,,,,,,,,,,,,,,,,,,,,,,,,0.35,0.512145042419,0.00118207931519,0.500050067902,1,s,695.013525963,,,,,,,,,,,,,,,,,,,,,,,,,,,,,,,,,,,,,,,,,,,,,,,,,,,,,,2015_Jun_22_2102,59.9754338752,LearningTask,10,9988,
200,s,-200,,,,,,,,,,,,,,,,,1,0,1,0,19,3,79,2,,,,,,,,,,,,,,,,,,,,,,,,,,,,,s,1,0.401458024979,None,0,2.0,circleyellow.gif,stop,,,,,,,,,,,,,,,,,,,,,,,,,,,,,,,,2.11,0.51146197319,0.00161480903625,0.401458024979,1,s,698.014811993,,,,,,,,,,,,,,,,,,,,,,,,,,,,,,,,,,,,,,,,,,,,,,,,,,,,,,2015_Jun_22_2102,59.9754338752,LearningTask,10,9988,
200,s,-200,,,,,,,,,,,,,,,,,1,0,1,0,20,0,80,2,,,,,,,,,,,,,,,,,,,,,,,,,,,,,s,1,0.400694847107,None,0,2.0,circleyellow.gif,stop,,,,,,,,,,,,,,,,,,,,,,,,,,,,,,,,2.23,0.512083053589,0.00117993354797,0.400694847107,1,s,701.014333963,,,,,,,,,,,,,,,,,,,,,,,,,,,,,,,,,,,,,,,,,,,,,,,,,,,,,,2015_Jun_22_2102,59.9754338752,LearningTask,10,9988,
200,w,200,,,,,,,,,,,,,,,,,1,0,1,0,20,1,81,0,,,,,,,,,,,,,,,,,,,,,,,,,,,,,w,1,0.433871030807,None,0,4.0,squarecyan.gif,stop,,,,,,,,,,,,,,,,,,,,,,,,,,,,,,,,4.23,0.512293815613,0.00137186050415,0.433871030807,1,w,704.016301155,,,,,,,,,,,,,,,,,,,,,,,,,,,,,,,,,,,,,,,,,,,,,,,,,,,,,,2015_Jun_22_2102,59.9754338752,LearningTask,10,9988,
-200,a,-200,,,,,,,,,,,,,,,,,1,0,1,0,20,2,82,3,,,,,,,,,,,,,,,,,,,,,,,,,,,,,a,1,0.634001970291,None,0,1.0,hexagongreen.gif,stop,,,,,,,,,,,,,,,,,,,,,,,,,,,,,,,,0.9,0.510381937027,0.00117707252502,0.634001970291,1,a,707.015383005,,,,,,,,,,,,,,,,,,,,,,,,,,,,,,,,,,,,,,,,,,,,,,,,,,,,,,2015_Jun_22_2102,59.9754338752,LearningTask,10,9988,
200,w,200,,,,,,,,,,,,,,,,,1,0,1,0,20,3,83,0,,,,,,,,,,,,,,,,,,,,,,,,,,,,,w,1,0.450189113617,None,0,4.0,linemagenta.gif,go,,,,,,,,,,,,,,,,,,,,,,,,,,,,,,,,0,0.512115001678,0.00119519233704,0.450189113617,1,w,710.015871048,,,,,,,,,,,,,,,,,,,,,,,,,,,,,,,,,,,,,,,,,,,,,,,,,,,,,,2015_Jun_22_2102,59.9754338752,LearningTask,10,9988,
-200,q,200,,,,,,,,,,,,,,,,,1,0,1,0,21,0,84,1,,,,,,,,,,,,,,,,,,,,,,,,,,,,,q,1,0.466785907745,None,0,4.0,linemagenta.gif,go,,,,,,,,,,,,,,,,,,,,,,,,,,,,,,,,4.0,0.511947870255,0.00117993354797,0.466785907745,1,q,713.016788006,,,,,,,,,,,,,,,,,,,,,,,,,,,,,,,,,,,,,,,,,,,,,,,,,,,,,,2015_Jun_22_2102,59.9754338752,LearningTask,10,9988,
200,s,-200,,,,,,,,,,,,,,,,,1,0,1,0,21,1,85,2,,,,,,,,,,,,,,,,,,,,,,,,,,,,,s,1,0.417005062103,None,0,1.0,crossblue.gif,go,,,,,,,,,,,,,,,,,,,,,,,,,,,,,,,,0,0.511598110199,0.00186491012573,0.417005062103,1,s,716.016393185,,,,,,,,,,,,,,,,,,,,,,,,,,,,,,,,,,,,,,,,,,,,,,,,,,,,,,2015_Jun_22_2102,59.9754338752,LearningTask,10,9988,
200,w,200,,,,,,,,,,,,,,,,,1,0,1,0,21,2,86,0,,,,,,,,,,,,,,,,,,,,,,,,,,,,,w,1,0.38348197937,None,0,2.0,triangleorange.gif,go,,,,,,,,,,,,,,,,,,,,,,,,,,,,,,,,1.93,0.513092041016,0.00123500823975,0.38348197937,1,w,719.016982079,,,,,,,,,,,,,,,,,,,,,,,,,,,,,,,,,,,,,,,,,,,,,,,,,,,,,,2015_Jun_22_2102,59.9754338752,LearningTask,10,9988,
200,s,-200,,,,,,,,,,,,,,,,,1,0,1,0,21,3,87,2,,,,,,,,,,,,,,,,,,,,,,,,,,,,,s,1,0.502396821976,None,0,2.0,triangleorange.gif,go,,,,,,,,,,,,,,,,,,,,,,,,,,,,,,,,1.84,0.51086807251,0.00146913528442,0.502396821976,1,s,722.017940044,,,,,,,,,,,,,,,,,,,,,,,,,,,,,,,,,,,,,,,,,,,,,,,,,,,,,,2015_Jun_22_2102,59.9754338752,LearningTask,10,9988,
-200,a,-200,,,,,,,,,,,,,,,,,1,0,1,0,22,0,88,3,,,,,,,,,,,,,,,,,,,,,,,,,,,,,a,1,0.383814096451,None,0,0.5,diamondwhite.gif,stop,,,,,,,,,,,,,,,,,,,,,,,,,,,,,,,,0,0.510980129242,0.00122618675232,0.383814096451,1,a,725.018815994,,,,,,,,,,,,,,,,,,,,,,,,,,,,,,,,,,,,,,,,,,,,,,,,,,,,,,2015_Jun_22_2102,59.9754338752,LearningTask,10,9988,
200,w,200,,,,,,,,,,,,,,,,,1,0,1,0,22,1,89,0,,,,,,,,,,,,,,,,,,,,,,,,,,,,,w,1,0.351891994476,None,0,2.0,circleyellow.gif,stop,,,,,,,,,,,,,,,,,,,,,,,,,,,,,,,,1.91,0.510633945465,0.00119280815125,0.351891994476,1,w,728.019520044,,,,,,,,,,,,,,,,,,,,,,,,,,,,,,,,,,,,,,,,,,,,,,,,,,,,,,2015_Jun_22_2102,59.9754338752,LearningTask,10,9988,
-200,a,-200,,,,,,,,,,,,,,,,,1,0,1,0,22,2,90,3,,,,,,,,,,,,,,,,,,,,,,,,,,,,,a,1,0.46809887886,None,0,2.0,triangleorange.gif,go,,,,,,,,,,,,,,,,,,,,,,,,,,,,,,,,1.82,0.510324954987,0.00124382972717,0.46809887886,1,a,731.019617081,,,,,,,,,,,,,,,,,,,,,,,,,,,,,,,,,,,,,,,,,,,,,,,,,,,,,,2015_Jun_22_2102,59.9754338752,LearningTask,10,9988,
200,w,200,,,,,,,,,,,,,,,,,1,0,1,0,22,3,91,0,,,,,,,,,,,,,,,,,,,,,,,,,,,,,w,1,0.367207050323,None,0,1.0,crossblue.gif,go,,,,,,,,,,,,,,,,,,,,,,,,,,,,,,,,0.99,0.511420965195,0.00120210647583,0.367207050323,1,w,734.019705057,,,,,,,,,,,,,,,,,,,,,,,,,,,,,,,,,,,,,,,,,,,,,,,,,,,,,,2015_Jun_22_2102,59.9754338752,LearningTask,10,9988,
-200,a,-200,,,,,,,,,,,,,,,,,1,0,1,0,23,0,92,3,,,,,,,,,,,,,,,,,,,,,,,,,,,,,a,1,0.450568914413,None,0,1.0,crossblue.gif,go,,,,,,,,,,,,,,,,,,,,,,,,,,,,,,,,0.82,0.511317968369,0.00121188163757,0.450568914413,1,a,737.020735979,,,,,,,,,,,,,,,,,,,,,,,,,,,,,,,,,,,,,,,,,,,,,,,,,,,,,,2015_Jun_22_2102,59.9754338752,LearningTask,10,9988,
200,s,-200,,,,,,,,,,,,,,,,,1,0,1,0,23,1,93,2,,,,,,,,,,,,,,,,,,,,,,,,,,,,,s,1,0.416761159897,None,0,2.0,triangleorange.gif,go,,,,,,,,,,,,,,,,,,,,,,,,,,,,,,,,2.18,0.511001825333,0.00116896629333,0.416761159897,1,s,740.020604134,,,,,,,,,,,,,,,,,,,,,,,,,,,,,,,,,,,,,,,,,,,,,,,,,,,,,,2015_Jun_22_2102,59.9754338752,LearningTask,10,9988,
-200,a,-200,,,,,,,,,,,,,,,,,1,0,1,0,23,2,94,3,,,,,,,,,,,,,,,,,,,,,,,,,,,,,a,1,0.585024833679,None,0,1.0,hexagongreen.gif,stop,,,,,,,,,,,,,,,,,,,,,,,,,,,,,,,,0.88,0.511108160019,0.00118708610535,0.585024833679,1,a,743.020431995,,,,,,,,,,,,,,,,,,,,,,,,,,,,,,,,,,,,,,,,,,,,,,,,,,,,,,2015_Jun_22_2102,59.9754338752,LearningTask,10,9988,
-200,a,-200,,,,,,,,,,,,,,,,,1,0,1,0,23,3,95,3,,,,,,,,,,,,,,,,,,,,,,,,,,,,,a,1,0.41788816452,None,0,1.0,hexagongreen.gif,stop,,,,,,,,,,,,,,,,,,,,,,,,,,,,,,,,0.81,0.511414051056,0.00119400024414,0.41788816452,1,a,746.020914078,,,,,,,,,,,,,,,,,,,,,,,,,,,,,,,,,,,,,,,,,,,,,,,,,,,,,,2015_Jun_22_2102,59.9754338752,LearningTask,10,9988,
200,s,-200,,,,,,,,,,,,,,,,,1,0,1,0,24,0,96,2,,,,,,,,,,,,,,,,,,,,,,,,,,,,,s,1,0.417336940765,None,0,0.5,invertedtrianglegray.gif,go,,,,,,,,,,,,,,,,,,,,,,,,,,,,,,,,0.45,0.512461900711,0.0011830329895,0.417336940765,1,s,749.020987988,,,,,,,,,,,,,,,,,,,,,,,,,,,,,,,,,,,,,,,,,,,,,,,,,,,,,,2015_Jun_22_2102,59.9754338752,LearningTask,10,9988,
200,s,-200,,,,,,,,,,,,,,,,,1,0,1,0,24,1,97,2,,,,,,,,,,,,,,,,,,,,,,,,,,,,,s,1,0.401148080826,None,0,0.5,invertedtrianglegray.gif,go,,,,,,,,,,,,,,,,,,,,,,,,,,,,,,,,0.56,0.512979030609,0.00112009048462,0.401148080826,1,s,752.022498131,,,,,,,,,,,,,,,,,,,,,,,,,,,,,,,,,,,,,,,,,,,,,,,,,,,,,,2015_Jun_22_2102,59.9754338752,LearningTask,10,9988,
200,w,200,,,,,,,,,,,,,,,,,1,0,1,0,24,2,98,0,,,,,,,,,,,,,,,,,,,,,,,,,,,,,w,1,0.451373100281,None,0,0.5,invertedtrianglegray.gif,go,,,,,,,,,,,,,,,,,,,,,,,,,,,,,,,,0.7,0.510569095612,0.00119209289551,0.451373100281,1,w,755.02264905,,,,,,,,,,,,,,,,,,,,,,,,,,,,,,,,,,,,,,,,,,,,,,,,,,,,,,2015_Jun_22_2102,59.9754338752,LearningTask,10,9988,
200,w,200,,,,,,,,,,,,,,,,,1,0,1,0,24,3,99,0,,,,,,,,,,,,,,,,,,,,,,,,,,,,,w,1,0.45055103302,None,0,2.0,triangleorange.gif,go,,,,,,,,,,,,,,,,,,,,,,,,,,,,,,,,1.79,0.511475086212,0.001296043396,0.45055103302,1,w,758.022920132,,,,,,,,,,,,,,,,,,,,,,,,,,,,,,,,,,,,,,,,,,,,,,,,,,,,,,2015_Jun_22_2102,59.9754338752,LearningTask,10,9988,
,,,,,,,,,,,,,,,,,,,1,0,1,0,,,,,,,,,,,,,,,,,,,,,,,,,,,,,,,,,,,,,,,,,,,,,,,,,,,,,,,,,,,,,,,,,,,,,,,,,,,,,,,,,,,,,,9,46.3087930679,,,,,,,,,,,,,,,,,,,,,,,,,,,,,,,,,,,,,,,,,,,,,2015_Jun_22_2102,59.9754338752,LearningTask,10,9988,
200,w,200,,,,,,,,,,,,,,,,,2,0,2,0,0,0,0,0,,,,,,,,,,,,,,,,,,,,,,,,,,,,,w,1,0.433071136475,None,0,4.0,squarecyan.gif,stop,,,,,,,,,,,,,,,,,,,,,,,,,,,,,,,,3.98,0.507030963898,0.00100588798523,0.433071136475,1,w,808.048236132,,,,,,,,,,,,,,,,,,,,,,,,,,,,,,,,,,,,,,,,,,,,,,,,,,,,,,2015_Jun_22_2102,59.9754338752,LearningTask,10,9988,
200,s,-200,,,,,,,,,,,,,,,,,2,0,2,0,0,1,1,2,,,,,,,,,,,,,,,,,,,,,,,,,,,,,s,1,0.300314903259,None,0,1.0,hexagongreen.gif,stop,,,,,,,,,,,,,,,,,,,,,,,,,,,,,,,,0,0.509954929352,0.00168395042419,0.300314903259,1,s,811.047197104,,,,,,,,,,,,,,,,,,,,,,,,,,,,,,,,,,,,,,,,,,,,,,,,,,,,,,2015_Jun_22_2102,59.9754338752,LearningTask,10,9988,
-200,a,-200,,,,,,,,,,,,,,,,,2,0,2,0,0,2,2,3,,,,,,,,,,,,,,,,,,,,,,,,,,,,,a,1,0.418329000473,None,0,2.0,circleyellow.gif,stop,,,,,,,,,,,,,,,,,,,,,,,,,,,,,,,,2.16,0.511049985886,0.00122785568237,0.418329000473,1,a,814.047281981,,,,,,,,,,,,,,,,,,,,,,,,,,,,,,,,,,,,,,,,,,,,,,,,,,,,,,2015_Jun_22_2102,59.9754338752,LearningTask,10,9988,
200,w,200,,,,,,,,,,,,,,,,,2,0,2,0,0,3,3,0,,,,,,,,,,,,,,,,,,,,,,,,,,,,,w,1,0.38379907608,None,0,4.0,squarecyan.gif,stop,,,,,,,,,,,,,,,,,,,,,,,,,,,,,,,,4.22,0.512297868729,0.00115895271301,0.38379907608,1,w,817.04756403,,,,,,,,,,,,,,,,,,,,,,,,,,,,,,,,,,,,,,,,,,,,,,,,,,,,,,2015_Jun_22_2102,59.9754338752,LearningTask,10,9988,
200,w,200,,,,,,,,,,,,,,,,,2,0,2,0,1,0,4,0,,,,,,,,,,,,,,,,,,,,,,,,,,,,,w,1,0.400733947754,None,0,1.0,crossblue.gif,go,,,,,,,,,,,,,,,,,,,,,,,,,,,,,,,,1.04,0.512235879898,0.00109791755676,0.400733947754,1,w,820.048094034,,,,,,,,,,,,,,,,,,,,,,,,,,,,,,,,,,,,,,,,,,,,,,,,,,,,,,2015_Jun_22_2102,59.9754338752,LearningTask,10,9988,
-200,a,-200,,,,,,,,,,,,,,,,,2,0,2,0,1,1,5,3,,,,,,,,,,,,,,,,,,,,,,,,,,,,,a,1,0.450555801392,None,0,0.5,invertedtrianglegray.gif,go,,,,,,,,,,,,,,,,,,,,,,,,,,,,,,,,0.59,0.512059926987,0.00119781494141,0.450555801392,1,a,823.049396992,,,,,,,,,,,,,,,,,,,,,,,,,,,,,,,,,,,,,,,,,,,,,,,,,,,,,,2015_Jun_22_2102,59.9754338752,LearningTask,10,9988,
200,w,200,,,,,,,,,,,,,,,,,2,0,2,0,1,2,6,0,,,,,,,,,,,,,,,,,,,,,,,,,,,,,w,1,0.450788021088,None,0,1.0,hexagongreen.gif,stop,,,,,,,,,,,,,,,,,,,,,,,,,,,,,,,,0,0.510848045349,0.0011899471283,0.450788021088,1,w,826.04906702,,,,,,,,,,,,,,,,,,,,,,,,,,,,,,,,,,,,,,,,,,,,,,,,,,,,,,2015_Jun_22_2102,59.9754338752,LearningTask,10,9988,
200,s,-200,,,,,,,,,,,,,,,,,2,0,2,0,1,3,7,2,,,,,,,,,,,,,,,,,,,,,,,,,,,,,s,1,0.56684589386,None,0,1.0,crossblue.gif,go,,,,,,,,,,,,,,,,,,,,,,,,,,,,,,,,0.75,0.511213064194,0.00119400024414,0.56684589386,1,s,829.050024033,,,,,,,,,,,,,,,,,,,,,,,,,,,,,,,,,,,,,,,,,,,,,,,,,,,,,,2015_Jun_22_2102,59.9754338752,LearningTask,10,9988,
200,w,200,,,,,,,,,,,,,,,,,2,0,2,0,2,0,8,0,,,,,,,,,,,,,,,,,,,,,,,,,,,,,w,1,0.383279800415,None,0,4.0,squarecyan.gif,stop,,,,,,,,,,,,,,,,,,,,,,,,,,,,,,,,3.89,0.511674165726,0.00116920471191,0.383279800415,1,w,832.050268173,,,,,,,,,,,,,,,,,,,,,,,,,,,,,,,,,,,,,,,,,,,,,,,,,,,,,,2015_Jun_22_2102,59.9754338752,LearningTask,10,9988,
200,w,200,,,,,,,,,,,,,,,,,2,0,2,0,2,1,9,0,,,,,,,,,,,,,,,,,,,,,,,,,,,,,w,1,0.633922100067,None,0,0.5,invertedtrianglegray.gif,go,,,,,,,,,,,,,,,,,,,,,,,,,,,,,,,,0.29,0.511739015579,0.00123691558838,0.633922100067,1,w,835.050867081,,,,,,,,,,,,,,,,,,,,,,,,,,,,,,,,,,,,,,,,,,,,,,,,,,,,,,2015_Jun_22_2102,59.9754338752,LearningTask,10,9988,
-200,q,200,,,,,,,,,,,,,,,,,2,0,2,0,2,2,10,1,,,,,,,,,,,,,,,,,,,,,,,,,,,,,q,1,0.500775098801,None,0,4.0,squarecyan.gif,stop,,,,,,,,,,,,,,,,,,,,,,,,,,,,,,,,3.76,0.510473012924,0.00119113922119,0.500775098801,1,q,838.051265001,,,,,,,,,,,,,,,,,,,,,,,,,,,,,,,,,,,,,,,,,,,,,,,,,,,,,,2015_Jun_22_2102,59.9754338752,LearningTask,10,9988,
200,w,200,,,,,,,,,,,,,,,,,2,0,2,0,2,3,11,0,,,,,,,,,,,,,,,,,,,,,,,,,,,,,w,1,0.417929887772,None,0,2.0,triangleorange.gif,go,,,,,,,,,,,,,,,,,,,,,,,,,,,,,,,,1.87,0.511090040207,0.00156211853027,0.417929887772,1,w,841.05190897,,,,,,,,,,,,,,,,,,,,,,,,,,,,,,,,,,,,,,,,,,,,,,,,,,,,,,2015_Jun_22_2102,59.9754338752,LearningTask,10,9988,
-200,q,200,,,,,,,,,,,,,,,,,2,0,2,0,3,0,12,1,,,,,,,,,,,,,,,,,,,,,,,,,,,,,q,1,0.417563915253,None,0,4.0,squarecyan.gif,stop,,,,,,,,,,,,,,,,,,,,,,,,,,,,,,,,3.75,0.510751962662,0.00118613243103,0.417563915253,1,q,844.051463127,,,,,,,,,,,,,,,,,,,,,,,,,,,,,,,,,,,,,,,,,,,,,,,,,,,,,,2015_Jun_22_2102,59.9754338752,LearningTask,10,9988,
-200,a,-200,,,,,,,,,,,,,,,,,2,0,2,0,3,1,13,3,,,,,,,,,,,,,,,,,,,,,,,,,,,,,a,1,0.451565027237,None,0,0.5,diamondwhite.gif,stop,,,,,,,,,,,,,,,,,,,,,,,,,,,,,,,,0.7,0.511868953705,0.00115895271301,0.451565027237,1,a,847.052047968,,,,,,,,,,,,,,,,,,,,,,,,,,,,,,,,,,,,,,,,,,,,,,,,,,,,,,2015_Jun_22_2102,59.9754338752,LearningTask,10,9988,
-200,q,200,,,,,,,,,,,,,,,,,2,0,2,0,3,2,14,1,,,,,,,,,,,,,,,,,,,,,,,,,,,,,q,1,0.435091972351,None,0,2.0,triangleorange.gif,go,,,,,,,,,,,,,,,,,,,,,,,,,,,,,,,,2.25,0.511533021927,0.00118899345398,0.435091972351,1,q,850.05310607,,,,,,,,,,,,,,,,,,,,,,,,,,,,,,,,,,,,,,,,,,,,,,,,,,,,,,2015_Jun_22_2102,59.9754338752,LearningTask,10,9988,
200,w,200,,,,,,,,,,,,,,,,,2,0,2,0,3,3,15,0,,,,,,,,,,,,,,,,,,,,,,,,,,,,,w,1,0.6016061306,None,0,4.0,linemagenta.gif,go,,,,,,,,,,,,,,,,,,,,,,,,,,,,,,,,0,0.511167049408,0.00157594680786,0.6016061306,1,w,853.053452969,,,,,,,,,,,,,,,,,,,,,,,,,,,,,,,,,,,,,,,,,,,,,,,,,,,,,,2015_Jun_22_2102,59.9754338752,LearningTask,10,9988,
-200,a,-200,,,,,,,,,,,,,,,,,2,0,2,0,4,0,16,3,,,,,,,,,,,,,,,,,,,,,,,,,,,,,a,1,0.401380062103,None,0,1.0,crossblue.gif,go,,,,,,,,,,,,,,,,,,,,,,,,,,,,,,,,0,0.511125087738,0.00117206573486,0.401380062103,1,a,856.05352807,,,,,,,,,,,,,,,,,,,,,,,,,,,,,,,,,,,,,,,,,,,,,,,,,,,,,,2015_Jun_22_2102,59.9754338752,LearningTask,10,9988,
200,s,-200,,,,,,,,,,,,,,,,,2,0,2,0,4,1,17,2,,,,,,,,,,,,,,,,,,,,,,,,,,,,,s,1,0.367060899734,None,0,1.0,crossblue.gif,go,,,,,,,,,,,,,,,,,,,,,,,,,,,,,,,,0.8,0.511852025986,0.00117897987366,0.367060899734,1,s,859.053394079,,,,,,,,,,,,,,,,,,,,,,,,,,,,,,,,,,,,,,,,,,,,,,,,,,,,,,2015_Jun_22_2102,59.9754338752,LearningTask,10,9988,
-200,a,-200,,,,,,,,,,,,,,,,,2,0,2,0,4,2,18,3,,,,,,,,,,,,,,,,,,,,,,,,,,,,,a,1,0.451532840729,None,0,0.5,diamondwhite.gif,stop,,,,,,,,,,,,,,,,,,,,,,,,,,,,,,,,0.33,0.51212310791,0.0011990070343,0.451532840729,1,a,862.054648161,,,,,,,,,,,,,,,,,,,,,,,,,,,,,,,,,,,,,,,,,,,,,,,,,,,,,,2015_Jun_22_2102,59.9754338752,LearningTask,10,9988,
-200,a,-200,,,,,,,,,,,,,,,,,2,0,2,0,4,3,19,3,,,,,,,,,,,,,,,,,,,,,,,,,,,,,a,1,0.56730389595,None,0,0.5,diamondwhite.gif,stop,,,,,,,,,,,,,,,,,,,,,,,,,,,,,,,,0,0.511464834213,0.00198984146118,0.56730389595,1,a,865.054852962,,,,,,,,,,,,,,,,,,,,,,,,,,,,,,,,,,,,,,,,,,,,,,,,,,,,,,2015_Jun_22_2102,59.9754338752,LearningTask,10,9988,
200,w,200,,,,,,,,,,,,,,,,,2,0,2,0,5,0,20,0,,,,,,,,,,,,,,,,,,,,,,,,,,,,,w,1,0.485234975815,None,0,2.0,circleyellow.gif,stop,,,,,,,,,,,,,,,,,,,,,,,,,,,,,,,,2.14,0.511101961136,0.00119400024414,0.485234975815,1,w,868.055344105,,,,,,,,,,,,,,,,,,,,,,,,,,,,,,,,,,,,,,,,,,,,,,,,,,,,,,2015_Jun_22_2102,59.9754338752,LearningTask,10,9988,
200,s,-200,,,,,,,,,,,,,,,,,2,0,2,0,5,1,21,2,,,,,,,,,,,,,,,,,,,,,,,,,,,,,s,1,0.416512012482,None,0,4.0,squarecyan.gif,stop,,,,,,,,,,,,,,,,,,,,,,,,,,,,,,,,0,0.511883974075,0.00116610527039,0.416512012482,1,s,871.055054188,,,,,,,,,,,,,,,,,,,,,,,,,,,,,,,,,,,,,,,,,,,,,,,,,,,,,,2015_Jun_22_2102,59.9754338752,LearningTask,10,9988,
200,s,-200,,,,,,,,,,,,,,,,,2,0,2,0,5,2,22,2,,,,,,,,,,,,,,,,,,,,,,,,,,,,,s,1,0.484063148499,None,0,2.0,circleyellow.gif,stop,,,,,,,,,,,,,,,,,,,,,,,,,,,,,,,,1.95,0.512602090836,0.00115299224854,0.484063148499,1,s,874.056578159,,,,,,,,,,,,,,,,,,,,,,,,,,,,,,,,,,,,,,,,,,,,,,,,,,,,,,2015_Jun_22_2102,59.9754338752,LearningTask,10,9988,
200,w,200,,,,,,,,,,,,,,,,,2,0,2,0,5,3,23,0,,,,,,,,,,,,,,,,,,,,,,,,,,,,,w,1,0.416328907013,None,0,2.0,circleyellow.gif,stop,,,,,,,,,,,,,,,,,,,,,,,,,,,,,,,,1.79,0.511638879776,0.00119090080261,0.416328907013,1,w,877.056941032,,,,,,,,,,,,,,,,,,,,,,,,,,,,,,,,,,,,,,,,,,,,,,,,,,,,,,2015_Jun_22_2102,59.9754338752,LearningTask,10,9988,
-200,a,-200,,,,,,,,,,,,,,,,,2,0,2,0,6,0,24,3,,,,,,,,,,,,,,,,,,,,,,,,,,,,,a,1,0.367746114731,None,0,4.0,linemagenta.gif,go,,,,,,,,,,,,,,,,,,,,,,,,,,,,,,,,0,0.510515928268,0.00118494033813,0.367746114731,1,a,880.056769133,,,,,,,,,,,,,,,,,,,,,,,,,,,,,,,,,,,,,,,,,,,,,,,,,,,,,,2015_Jun_22_2102,59.9754338752,LearningTask,10,9988,
200,s,-200,,,,,,,,,,,,,,,,,2,0,2,0,6,1,25,2,,,,,,,,,,,,,,,,,,,,,,,,,,,,,s,1,0.367604017258,None,0,4.0,linemagenta.gif,go,,,,,,,,,,,,,,,,,,,,,,,,,,,,,,,,4.02,0.511984825134,0.00124096870422,0.367604017258,1,s,883.057717085,,,,,,,,,,,,,,,,,,,,,,,,,,,,,,,,,,,,,,,,,,,,,,,,,,,,,,2015_Jun_22_2102,59.9754338752,LearningTask,10,9988,
-200,q,200,,,,,,,,,,,,,,,,,2,0,2,0,6,2,26,1,,,,,,,,,,,,,,,,,,,,,,,,,,,,,q,1,0.484117031097,None,0,2.0,triangleorange.gif,go,,,,,,,,0.0747809410095,,,,,,,,,,,,,,,,,,,,,,,,0,0.511423826218,0.00118494033813,0.966400146484,0,a,886.057376146,2.02,0.513982057571,0.00124716758728,0.484117031097,1,q,889.058022022,,,,,,,,,,,,,,,,,,,,,,,,,,,,,,,,,,,,,,,,,,,,,,,2015_Jun_22_2102,59.9754338752,LearningTask,10,9988,
-200,q,200,,,,,,,,,,,,,,,,,2,0,2,0,6,3,27,1,,,,,,,,,,,,,,,,,,,,,,,,,,,,,q,1,0.351692914963,None,0,4.0,linemagenta.gif,go,,,,,,,,,,,,,,,,,,,,,,,,,,,,,,,,3.88,0.511338949203,0.00109887123108,0.351692914963,1,q,892.057924032,,,,,,,,,,,,,,,,,,,,,,,,,,,,,,,,,,,,,,,,,,,,,,,,,,,,,,2015_Jun_22_2102,59.9754338752,LearningTask,10,9988,
200,s,-200,,,,,,,,,,,,,,,,,2,0,2,0,7,0,28,2,,,,,,,,,,,,,,,,,,,,,,,,,,,,,s,1,0.41713809967,None,0,1.0,crossblue.gif,go,,,,,,,,,,,,,,,,,,,,,,,,,,,,,,,,0,0.512279033661,0.00108790397644,0.41713809967,1,s,895.058923006,,,,,,,,,,,,,,,,,,,,,,,,,,,,,,,,,,,,,,,,,,,,,,,,,,,,,,2015_Jun_22_2102,59.9754338752,LearningTask,10,9988,
-200,q,200,,,,,,,,,,,,,,,,,2,0,2,0,7,1,29,1,,,,,,,,,,,,,,,,,,,,,,,,,,,,,q,1,0.384541988373,None,0,2.0,circleyellow.gif,stop,,,,,,,,,,,,,,,,,,,,,,,,,,,,,,,,0,0.511765003204,0.0010621547699,0.384541988373,1,q,898.059501171,,,,,,,,,,,,,,,,,,,,,,,,,,,,,,,,,,,,,,,,,,,,,,,,,,,,,,2015_Jun_22_2102,59.9754338752,LearningTask,10,9988,
-200,a,-200,,,,,,,,,,,,,,,,,2,0,2,0,7,2,30,3,,,,,,,,,,,,,,,,,,,,,,,,,,,,,a,1,0.517760038376,None,0,0.5,diamondwhite.gif,stop,,,,,,,,,,,,,,,,,,,,,,,,,,,,,,,,0,0.51104593277,0.00121092796326,0.517760038376,1,a,901.059446096,,,,,,,,,,,,,,,,,,,,,,,,,,,,,,,,,,,,,,,,,,,,,,,,,,,,,,2015_Jun_22_2102,59.9754338752,LearningTask,10,9988,
-200,a,-200,,,,,,,,,,,,,,,,,2,0,2,0,7,3,31,3,,,,,,,,,,,,,,,,,,,,,,,,,,,,,a,1,0.384703874588,None,0,0.5,diamondwhite.gif,stop,,,,,,,,,,,,,,,,,,,,,,,,,,,,,,,,0.66,0.511809825897,0.00116991996765,0.384703874588,1,a,904.060615063,,,,,,,,,,,,,,,,,,,,,,,,,,,,,,,,,,,,,,,,,,,,,,,,,,,,,,2015_Jun_22_2102,59.9754338752,LearningTask,10,9988,
200,s,-200,,,,,,,,,,,,,,,,,2,0,2,0,8,0,32,2,,,,,,,,,,,,,,,,,,,,,,,,,,,,,s,1,0.484187841415,None,0,1.0,crossblue.gif,go,,,,,,,,,,,,,,,,,,,,,,,,,,,,,,,,1.14,0.51181101799,0.00119400024414,0.484187841415,1,s,907.061171055,,,,,,,,,,,,,,,,,,,,,,,,,,,,,,,,,,,,,,,,,,,,,,,,,,,,,,2015_Jun_22_2102,59.9754338752,LearningTask,10,9988,
-200,a,-200,,,,,,,,,,,,,,,,,2,0,2,0,8,1,33,3,,,,,,,,,,,,,,,,,,,,,,,,,,,,,a,1,0.384347915649,None,0,0.5,diamondwhite.gif,stop,,,,,,,,,,,,,,,,,,,,,,,,,,,,,,,,0,0.510911941528,0.00144004821777,0.384347915649,1,a,910.061522961,,,,,,,,,,,,,,,,,,,,,,,,,,,,,,,,,,,,,,,,,,,,,,,,,,,,,,2015_Jun_22_2102,59.9754338752,LearningTask,10,9988,
-200,q,200,,,,,,,,,,,,,,,,,2,0,2,0,8,2,34,1,,,,,,,,,,,,,,,,,,,,,,,,,,,,,q,1,0.401350021362,None,0,4.0,squarecyan.gif,stop,,,,,,,,,,,,,,,,,,,,,,,,,,,,,,,,3.78,0.510516881943,0.00118398666382,0.401350021362,1,q,913.061257124,,,,,,,,,,,,,,,,,,,,,,,,,,,,,,,,,,,,,,,,,,,,,,,,,,,,,,2015_Jun_22_2102,59.9754338752,LearningTask,10,9988,
200,s,-200,,,,,,,,,,,,,,,,,2,0,2,0,8,3,35,2,,,,,,,,,,,,,,,,,,,,,,,,,,,,,s,1,0.6505651474,None,0,1.0,crossblue.gif,go,,,,,,,,,,,,,,,,,,,,,,,,,,,,,,,,0.94,0.512134075165,0.00119590759277,0.6505651474,1,s,916.061700106,,,,,,,,,,,,,,,,,,,,,,,,,,,,,,,,,,,,,,,,,,,,,,,,,,,,,,2015_Jun_22_2102,59.9754338752,LearningTask,10,9988,
-200,a,-200,,,,,,,,,,,,,,,,,2,0,2,0,9,0,36,3,,,,,,,,,,,,,,,,,,,,,,,,,,,,,a,1,0.384455919266,None,0,0.5,diamondwhite.gif,stop,,,,,,,,0.29025888443,,,,,,,,,,,,,,,,,,,,,,,,0,0.51148891449,0.00115203857422,[],0,None,919.062391043,0.39,0.512881994247,0.00198793411255,0.384455919266,1,a,922.063049078,,,,,,,,,,,,,,,,,,,,,,,,,,,,,,,,,,,,,,,,,,,,,,,2015_Jun_22_2102,59.9754338752,LearningTask,10,9988,
-200,q,200,,,,,,,,,,,,,,,,,2,0,2,0,9,1,37,1,,,,,,,,,,,,,,,,,,,,,,,,,,,,,q,1,0.433837890625,None,0,1.0,crossblue.gif,go,,,,,,,,,,,,,,,,,,,,,,,,,,,,,,,,0,0.511065006256,0.00119805335999,0.433837890625,1,q,925.063037157,,,,,,,,,,,,,,,,,,,,,,,,,,,,,,,,,,,,,,,,,,,,,,,,,,,,,,2015_Jun_22_2102,59.9754338752,LearningTask,10,9988,
-200,a,-200,,,,,,,,,,,,,,,,,2,0,2,0,9,2,38,3,,,,,,,,,,,,,,,,,,,,,,,,,,,,,a,1,0.401111841202,None,0,2.0,triangleorange.gif,go,,,,,,,,,,,,,,,,,,,,,,,,,,,,,,,,2.16,0.512237071991,0.00118112564087,0.401111841202,1,a,928.063866138,,,,,,,,,,,,,,,,,,,,,,,,,,,,,,,,,,,,,,,,,,,,,,,,,,,,,,2015_Jun_22_2102,59.9754338752,LearningTask,10,9988,
200,w,200,,,,,,,,,,,,,,,,,2,0,2,0,9,3,39,0,,,,,,,,,,,,,,,,,,,,,,,,,,,,,w,1,0.534471035004,None,0,2.0,triangleorange.gif,go,,,,,,,,,,,,,,,,,,,,,,,,,,,,,,,,1.87,0.510976076126,0.00119495391846,0.534471035004,1,w,931.064380169,,,,,,,,,,,,,,,,,,,,,,,,,,,,,,,,,,,,,,,,,,,,,,,,,,,,,,2015_Jun_22_2102,59.9754338752,LearningTask,10,9988,
-200,a,-200,,,,,,,,,,,,,,,,,2,0,2,0,10,0,40,3,,,,,,,,,,,,,,,,,,,,,,,,,,,,,a,1,0.517235994339,None,0,2.0,circleyellow.gif,stop,,,,,,,,,,,,,,,,,,,,,,,,,,,,,,,,1.83,0.5114569664,0.00114488601685,0.517235994339,1,a,934.064023972,,,,,,,,,,,,,,,,,,,,,,,,,,,,,,,,,,,,,,,,,,,,,,,,,,,,,,2015_Jun_22_2102,59.9754338752,LearningTask,10,9988,
-200,a,-200,,,,,,,,,,,,,,,,,2,0,2,0,10,1,41,3,,,,,,,,,,,,,,,,,,,,,,,,,,,,,a,1,0.400012016296,None,0,4.0,linemagenta.gif,go,,,,,,,,,,,,,,,,,,,,,,,,,,,,,,,,4.1,0.512464046478,0.00120210647583,0.400012016296,1,a,937.064769983,,,,,,,,,,,,,,,,,,,,,,,,,,,,,,,,,,,,,,,,,,,,,,,,,,,,,,2015_Jun_22_2102,59.9754338752,LearningTask,10,9988,
-200,q,200,,,,,,,,,,,,,,,,,2,0,2,0,10,2,42,1,,,,,,,,,,,,,,,,,,,,,,,,,,,,,None,0,,None,0,0.5,invertedtrianglegray.gif,go,,,,,,,,,,,,,,,,,,,,,,,,,,,,,,,,0,0.511745929718,0.00116991996765,[],0,None,940.066512108,0,0.511675834656,0.00121784210205,[],0,None,943.06539011,,,0,0.513994932175,0.00133490562439,[],0,None,946.06646204,0,0.513330936432,0.00124502182007,[],0,None,949.067470074,0,0.512746095657,0.001296043396,[],0,None,952.067710161,,,,,,,,,,,,,,,,,,,,,,,,2015_Jun_22_2102,59.9754338752,LearningTask,10,9988,
200,w,200,,,,,,,,,,,,,,,,,2,0,2,0,10,3,43,0,,,,,,,,,,,,,,,,,,,,,,,,,,,,,None,0,,None,0,1.0,crossblue.gif,go,,,,,,,,,,,,,,,,,,,,,,,,,,,,,,,,0,0.511121988297,0.00111198425293,[],0,None,955.067882061,0,0.512849807739,0.00125694274902,[],0,None,958.067927122,,,0,0.513581037521,0.00122213363647,[],0,None,961.068093061,0,0.51317691803,0.00122094154358,[],0,None,964.068248034,0,0.513262987137,0.0012640953064,[],0,None,967.06886816,,,,,,,,,,,,,,,,,,,,,,,,2015_Jun_22_2102,59.9754338752,LearningTask,10,9988,
-200,a,-200,,,,,,,,,,,,,,,,,2,0,2,0,11,0,44,3,,,,,,,,,,,,,,,,,,,,,,,,,,,,,None,0,,None,0,0.5,invertedtrianglegray.gif,go,,,,,,,,,,,,,,,,,,,,,,,,,,,,,,,,0,0.511927843094,0.00116491317749,[],0,None,970.069625139,0,0.513643026352,0.00125479698181,[],0,None,973.069965124,,,0,0.513581037521,0.00125098228455,[],0,None,976.070909023,0,0.512665987015,0.00142884254456,[],0,None,979.07091713,0,0.513566970825,0.00124096870422,[],0,None,982.071357012,,,,,,,,,,,,,,,,,,,,,,,,2015_Jun_22_2102,59.9754338752,LearningTask,10,9988,
200,s,-200,,,,,,,,,,,,,,,,,2,0,2,0,11,1,45,2,,,,,,,,,,,,,,,,,,,,,,,,,,,,,None,0,,None,0,0.5,diamondwhite.gif,stop,,,,,,,,,,,,,,,,,,,,,,,,,,,,,,,,0,0.511874914169,0.00150489807129,[],0,None,985.072204113,0,0.513389110565,0.0012321472168,[],0,None,988.072489977,,,0,0.513474941254,0.00125193595886,[],0,None,991.073038101,0,0.513170957565,0.001296043396,[],0,None,994.072491169,0,0.513648986816,0.00171589851379,[],0,None,997.073716164,,,,,,,,,,,,,,,,,,,,,,,,2015_Jun_22_2102,59.9754338752,LearningTask,10,9988,
-200,a,-200,,,,,,,,,,,,,,,,,2,0,2,0,11,2,46,3,,,,,,,,,,,,,,,,,,,,,,,,,,,,,None,0,,w,0,0.5,invertedtrianglegray.gif,go,,,,,,,,0.243124008179,,,,,,,,,,,,,,,,,,,,,,,,0,0.511728048325,0.00117993354797,[],0,None,1000.07381797,0,0.513676166534,0.00124716758728,[],0,None,1003.07394719,,,0,0.513413190842,0.00124216079712,[],0,None,1006.07552218,0,0.512717962265,0.00130200386047,[],0,None,1009.0746181,0,0.513563156128,0.00126600265503,[],0,None,1012.076092,,,,,,,,,,,,,,,,,,,,,,,,2015_Jun_22_2102,59.9754338752,LearningTask,10,9988,
-200,a,-200,,,,,,,,,,,,,,,,,2,0,2,0,11,3,47,3,,,,,,,,,,,,,,,,,,,,,,,,,,,,,a,1,0.267194032669,None,0,0.5,diamondwhite.gif,stop,,,,,,,,,,,,,,,,,,,,,,,,,,,,,,,,0,0.510963916779,0.00123190879822,0.485018968582,0,w,1015.07629418,0.4,0.512958049774,0.00124907493591,0.267194032669,1,a,1018.07680607,,,,,,,,,,,,,,,,,,,,,,,,,,,,,,,,,,,,,,,,,,,,,,,2015_Jun_22_2102,59.9754338752,LearningTask,10,9988,
200,s,-200,,,,,,,,,,,,,,,,,2,0,2,0,12,0,48,2,,,,,,,,,,,,,,,,,,,,,,,,,,,,,s,1,0.400707006454,None,0,0.5,invertedtrianglegray.gif,go,,,,,,,,,,,,,,,,,,,,,,,,,,,,,,,,0,0.510759115219,0.0011510848999,0.434894800186,0,q,1021.07703114,0,0.512777090073,0.00128197669983,0.76778793335,0,a,1024.07737398,,,0.67,0.513439178467,0.00174021720886,0.400707006454,1,s,1027.07819104,,,,,,,,,,,,,,,,,,,,,,,,,,,,,,,,,,,,,,2015_Jun_22_2102,59.9754338752,LearningTask,10,9988,
-200,q,200,,,,,,,,,,,,,,,,,2,0,2,0,12,1,49,1,,,,,,,,,,,,,,,,,,,,,,,,,,,,,q,1,0.583252906799,None,0,2.0,triangleorange.gif,go,,,,,,,,0.208760023117,,,,,,,,,,,,,,,,,,,,,,,,0,0.511501073837,0.00120306015015,[],0,None,1030.07809114,0,0.514064073563,0.00125002861023,0.583252906799,1,q,1033.07903099,,,,,,,,,,,,,,,,,,,,,,,,,,,,,,,,,,,,,,,,,,,,,,,2015_Jun_22_2102,59.9754338752,LearningTask,10,9988,
-200,q,200,,,,,,,,,,,,,,,,,2,0,2,0,12,2,50,1,,,,,,,,,,,,,,,,,,,,,,,,,,,,,None,0,,None,0,2.0,circleyellow.gif,stop,,,,,,,,,,,,,,,,,,,,,,,,,,,,,,,,0,0.511507034302,0.00114798545837,[],0,None,1036.0786531,0,0.514092922211,0.00124096870422,[],0,None,1039.08014417,,,0,0.512351989746,0.00127196311951,[],0,None,1042.07951903,0,0.513684988022,0.00123596191406,[],0,None,1045.08012009,0,0.51308298111,0.00124597549438,[],0,None,1048.08078098,,,,,,,,,,,,,,,,,,,,,,,,2015_Jun_22_2102,59.9754338752,LearningTask,10,9988,
200,w,200,,,,,,,,,,,,,,,,,2,0,2,0,12,3,51,0,,,,,,,,,,,,,,,,,,,,,,,,,,,,,None,0,,None,0,2.0,circleyellow.gif,stop,,,,,,,,,,,,,,,,,,,,,,,,,,,,,,,,0,0.511580944061,0.00119709968567,[],0,None,1051.08090806,0,0.513546943665,0.0015070438385,[],0,None,1054.08190298,,,0,0.513232946396,0.00129294395447,[],0,None,1057.08189297,0,0.513601064682,0.00129890441895,[],0,None,1060.08262801,0,0.513712882996,0.00122404098511,[],0,None,1063.08261108,,,,,,,,,,,,,,,,,,,,,,,,2015_Jun_22_2102,59.9754338752,LearningTask,10,9988,
200,s,-200,,,,,,,,,,,,,,,,,2,0,2,0,13,0,52,2,,,,,,,,,,,,,,,,,,,,,,,,,,,,,None,0,,None,0,2.0,circleyellow.gif,stop,,,,,,,,,,,,,,,,,,,,,,,,,,,,,,,,0,0.512333869934,0.00113892555237,[],0,None,1066.08412004,0,0.512408018112,0.00123000144958,[],0,None,1069.08414912,,,0,0.513092041016,0.00125312805176,[],0,None,1072.08404613,0,0.51366019249,0.00128221511841,[],0,None,1075.08482313,0,0.512953996658,0.00132203102112,[],0,None,1078.08461905,,,,,,,,,,,,,,,,,,,,,,,,2015_Jun_22_2102,59.9754338752,LearningTask,10,9988,
-200,q,200,,,,,,,,,,,,,,,,,2,0,2,0,13,1,53,1,,,,,,,,,,,,,,,,,,,,,,,,,,,,,None,0,,None,0,4.0,squarecyan.gif,stop,,,,,,,,,,,,,,,,,,,,,,,,,,,,,,,,0,0.511902093887,0.00119400024414,[],0,None,1081.08590913,0,0.513235092163,0.00124001502991,[],0,None,1084.0859971,,,0,0.513319015503,0.00127100944519,[],0,None,1087.08658099,0,0.512855052948,0.00123405456543,[],0,None,1090.08697414,0,0.513621807098,0.00123381614685,[],0,None,1093.08720398,,,,,,,,,,,,,,,,,,,,,,,,2015_Jun_22_2102,59.9754338752,LearningTask,10,9988,
200,s,-200,,,,,,,,,,,,,,,,,2,0,2,0,13,2,54,2,,,,,,,,,,,,,,,,,,,,,,,,,,,,,s,1,0.350864171982,None,0,0.5,invertedtrianglegray.gif,go,,,,,,,,,,,,,,,,,,,,,,,,,,,,,,,,0,0.511227846146,0.00119495391846,[],0,None,1096.088027,0,0.51297211647,0.0013279914856,[],0,None,1099.08820915,,,0.32,0.51326417923,0.00126314163208,0.350864171982,1,s,1102.0879631,,,,,,,,,,,,,,,,,,,,,,,,,,,,,,,,,,,,,,2015_Jun_22_2102,59.9754338752,LearningTask,10,9988,
-200,q,200,,,,,,,,,,,,,,,,,2,0,2,0,13,3,55,1,,,,,,,,,,,,,,,,,,,,,,,,,,,,,q,1,0.284578084946,None,0,1.0,hexagongreen.gif,stop,,,,,,,,0.691817998886,,,,,,,,,,,,,,,,,,,,,,,,0,0.512231826782,0.00189590454102,[],0,None,1105.08888912,1.13,0.513387918472,0.00124597549438,0.284578084946,1,q,1108.08915401,,,,,,,,,,,,,,,,,,,,,,,,,,,,,,,,,,,,,,,,,,,,,,,2015_Jun_22_2102,59.9754338752,LearningTask,10,9988,
-200,q,200,,,,,,,,,,,,,,,,,2,0,2,0,14,0,56,1,,,,,,,,,,,,,,,,,,,,,,,,,,,,,q,1,0.300961971283,None,0,1.0,crossblue.gif,go,,,,,,,,,,,,,,,,,,,,,,,,,,,,,,,,0,0.512258052826,0.00116896629333,[],0,None,1111.08950305,0.76,0.513659954071,0.00124883651733,0.300961971283,1,q,1114.09048009,,,,,,,,,,,,,,,,,,,,,,,,,,,,,,,,,,,,,,,,,,,,,,,2015_Jun_22_2102,59.9754338752,LearningTask,10,9988,
-200,q,200,,,,,,,,,,,,,,,,,2,0,2,0,14,1,57,1,,,,,,,,,,,,,,,,,,,,,,,,,,,,,q,1,0.233894824982,None,0,1.0,hexagongreen.gif,stop,,,,,,,,0.742056846619,,,,,,,,,,,,,,,,,,,,,,,,0,0.511482000351,0.00118088722229,[],0,None,1117.09068704,0,0.51359796524,0.00126600265503,[],0,None,1120.09174919,,,0,0.512877941132,0.00123286247253,0.233894824982,1,q,1123.091784,,,,,,,,,,,,,,,,,,,,,,,,,,,,,,,,,,,,,,2015_Jun_22_2102,59.9754338752,LearningTask,10,9988,
200,w,200,,,,,,,,,,,,,,,,,2,0,2,0,14,2,58,0,,,,,,,,,,,,,,,,,,,,,,,,,,,,,w,1,0.784681081772,None,0,1.0,hexagongreen.gif,stop,,,,,,,,,,,,,,,,,,,,,,,,,,,,,,,,0,0.511285066605,0.00117897987366,0.784681081772,1,w,1126.09120798,,,,,,,,,,,,,,,,,,,,,,,,,,,,,,,,,,,,,,,,,,,,,,,,,,,,,,2015_Jun_22_2102,59.9754338752,LearningTask,10,9988,
200,w,200,,,,,,,,,,,,,,,,,2,0,2,0,14,3,59,0,,,,,,,,,,,,,,,,,,,,,,,,,,,,,w,1,0.617490053177,None,0,4.0,squarecyan.gif,stop,,,,,,,,,,,,,,,,,,,,,,,,,,,,,,,,4.1,0.512360095978,0.00120306015015,0.617490053177,1,w,1129.09249401,,,,,,,,,,,,,,,,,,,,,,,,,,,,,,,,,,,,,,,,,,,,,,,,,,,,,,2015_Jun_22_2102,59.9754338752,LearningTask,10,9988,
-200,a,-200,,,,,,,,,,,,,,,,,2,0,2,0,15,0,60,3,,,,,,,,,,,,,,,,,,,,,,,,,,,,,None,0,,None,0,0.5,invertedtrianglegray.gif,go,,,,,,,,,,,,,,,,,,,,,,,,,,,,,,,,0,0.511395931244,0.00116801261902,[],0,None,1132.09301996,0,0.513319015503,0.00127601623535,[],0,None,1135.09361005,,,0,0.512506961823,0.0013108253479,[],0,None,1138.09338307,0,0.513421058655,0.00124502182007,[],0,None,1141.09522104,0,0.511419057846,0.00124096870422,[],0,None,1144.09464312,,,,,,,,,,,,,,,,,,,,,,,,2015_Jun_22_2102,59.9754338752,LearningTask,10,9988,
