xPos,corrAns,yPos,corrGoResp,yPosGoStim,xPosGoStim,pracTrials.thisRepN,pracTrials.thisTrialN,pracTrials.thisN,pracTrials.thisIndex,ReDoLoopPrac.thisRepN,ReDoLoopPrac.thisTrialN,ReDoLoopPrac.thisN,ReDoLoopPrac.thisIndex,ReDoLoopPrac.thisTrial,pracStopTrials.thisRepN,pracStopTrials.thisTrialN,pracStopTrials.thisN,pracStopTrials.thisIndex,ok1.keys,ok1.rt,resp.keys,resp.corr,resp.rt,learningStimOnset,learningFixOnset,beginningSSD,trialType,goStim,goResp.keys,goResp.corr,goResp.rt,goTrailCountOutput,goCumRTOutput,goRTCountOutput,stopTrialCountOutput,stopSuccessCountOutput,omissionCountOutput,commissionCountOutput,fixStopOnset,goStimOnset,stopSignalOnset,expName,gender (m/f),age,frameRate,session,date,participant,
,,,,,,,,,,,,,,,,,,,space,2.24440813065,,,,,,,,,,,,,,,,,,,,,,LearningTask,,,60.1352012032,3,2015_May_06_2049,9999,
200,w,200,,,,0,0,0,4,0,0,0,0,None,,,,,,,w,1,0.384706020355,0.500866174698,0.111088037491,,,,,,,,,,,,,,,,,LearningTask,,,60.1352012032,3,2015_May_06_2049,9999,
200,w,200,,,,0,0,0,4,,,,,,,,,,,,,,,,,,,,,,,,,,,,,,,,,LearningTask,,,60.1352012032,3,2015_May_06_2049,9999,
-200,a,-200,,,,0,1,1,7,0,0,0,0,None,,,,,,,a,1,0.385313034058,0.511638879776,0.00189280509949,,,,,,,,,,,,,,,,,LearningTask,,,60.1352012032,3,2015_May_06_2049,9999,
-200,a,-200,,,,0,1,1,7,,,,,,,,,,,,,,,,,,,,,,,,,,,,,,,,,LearningTask,,,60.1352012032,3,2015_May_06_2049,9999,
-200,a,-200,,,,0,2,2,3,0,0,0,0,None,,,,,,,a,1,0.41855597496,0.504014968872,0.00154685974121,,,,,,,,,,,,,,,,,LearningTask,,,60.1352012032,3,2015_May_06_2049,9999,
-200,a,-200,,,,0,2,2,3,,,,,,,,,,,,,,,,,,,,,,,,,,,,,,,,,LearningTask,,,60.1352012032,3,2015_May_06_2049,9999,
200,w,200,,,,0,3,3,8,0,0,0,0,None,,,,,,,w,1,0.384695053101,0.51176905632,0.000952005386353,,,,,,,,,,,,,,,,,LearningTask,,,60.1352012032,3,2015_May_06_2049,9999,
200,w,200,,,,0,3,3,8,,,,,,,,,,,,,,,,,,,,,,,,,,,,,,,,,LearningTask,,,60.1352012032,3,2015_May_06_2049,9999,
-200,q,200,,,,0,4,4,1,0,0,0,0,None,,,,,,,q,1,0.401110887527,0.503956079483,0.00151300430298,,,,,,,,,,,,,,,,,LearningTask,,,60.1352012032,3,2015_May_06_2049,9999,
-200,q,200,,,,0,4,4,1,,,,,,,,,,,,,,,,,,,,,,,,,,,,,,,,,LearningTask,,,60.1352012032,3,2015_May_06_2049,9999,
-200,q,200,,,,0,5,5,5,0,0,0,0,None,,,,,,,q,1,0.451765060425,0.511104822159,0.00088095664978,,,,,,,,,,,,,,,,,LearningTask,,,60.1352012032,3,2015_May_06_2049,9999,
-200,q,200,,,,0,5,5,5,,,,,,,,,,,,,,,,,,,,,,,,,,,,,,,,,LearningTask,,,60.1352012032,3,2015_May_06_2049,9999,
200,w,200,,,,0,6,6,0,0,0,0,0,None,,,,,,,w,1,0.418220043182,0.500238895416,0.00151801109314,,,,,,,,,,,,,,,,,LearningTask,,,60.1352012032,3,2015_May_06_2049,9999,
200,w,200,,,,0,6,6,0,,,,,,,,,,,,,,,,,,,,,,,,,,,,,,,,,LearningTask,,,60.1352012032,3,2015_May_06_2049,9999,
-200,q,200,,,,0,7,7,9,0,0,0,0,None,,,,,,,q,1,0.400394916534,0.508993864059,0.000897884368896,,,,,,,,,,,,,,,,,LearningTask,,,60.1352012032,3,2015_May_06_2049,9999,
-200,q,200,,,,0,7,7,9,,,,,,,,,,,,,,,,,,,,,,,,,,,,,,,,,LearningTask,,,60.1352012032,3,2015_May_06_2049,9999,
200,s,-200,,,,0,8,8,6,0,0,0,0,None,,,,,,,s,1,0.384897947311,0.500679969788,0.000887870788574,,,,,,,,,,,,,,,,,LearningTask,,,60.1352012032,3,2015_May_06_2049,9999,
200,s,-200,,,,0,8,8,6,,,,,,,,,,,,,,,,,,,,,,,,,,,,,,,,,LearningTask,,,60.1352012032,3,2015_May_06_2049,9999,
200,s,-200,,,,0,9,9,2,0,0,0,0,None,,,,,,,s,1,0.418022155762,0.506893873215,0.00100898742676,,,,,,,,,,,,,,,,,LearningTask,,,60.1352012032,3,2015_May_06_2049,9999,
200,s,-200,,,,0,9,9,2,,,,,,,,,,,,,,,,,,,,,,,,,,,,,,,,,LearningTask,,,60.1352012032,3,2015_May_06_2049,9999,
,,,z,0,-200,,,,,,,,,,0,0,0,0,,,,,,,,-1,go,lineyellow.gif,z,1,0.351385831833,1,0.351385831833,1,0,0,0,0,0.00147008895874,0.50101017952,,LearningTask,,,60.1352012032,3,2015_May_06_2049,9999,
,,,m,0,200,,,,,,,,,,0,1,1,1,,,,,,,,-1,go,lineyellow.gif,m,1,0.450179100037,2,0.80156493187,2,0,0,0,0,0.001140832901,0.514556884766,,LearningTask,,,60.1352012032,3,2015_May_06_2049,9999,
,,,z,0,-200,,,,,,,,,,1,0,2,0,,,,,,,,-1,go,circlecyan.gif,z,1,0.384855031967,3,1.18641996384,3,0,0,0,0,0.000946998596191,0.514925003052,,LearningTask,,,60.1352012032,3,2015_May_06_2049,9999,
,,,z,0,-200,,,,,,,,,,1,1,3,0,,,,,,,,0.25,stop,squarewhite.gif,None,0,,3,1.18641996384,3,1,1,0,0,0.000991106033325,0.514883041382,0.765131950378,LearningTask,,,60.1352012032,3,2015_May_06_2049,9999,
,,,m,0,200,,,,,,,,,,2,0,4,1,,,,,,,,0.25,stop,triangleorange.gif,m,1,0.318152189255,3,1.18641996384,3,2,1,0,0,0.00124597549438,0.51392698288,0.764302968979,LearningTask,,,60.1352012032,3,2015_May_06_2049,9999,
,,,z,0,-200,,,,,,,,,,2,1,5,0,,,,,,,,0.25,stop,diamondgray.gif,z,1,0.335355043411,3,1.18641996384,3,3,1,0,0,0.00238394737244,0.51388001442,0.764054059982,LearningTask,,,60.1352012032,3,2015_May_06_2049,9999,
,,,m,0,200,,,,,,,,,,3,0,6,1,,,,,,,,-1,go,invertedtrianglegreen.gif,m,1,0.334749937057,4,1.52116990089,4,3,1,0,0,0.00237894058228,0.514267921448,,LearningTask,,,60.1352012032,3,2015_May_06_2049,9999,
,,,m,0,200,,,,,,,,,,3,1,7,1,,,,,,,,0.25,stop,squarewhite.gif,None,0,,4,1.52116990089,4,4,2,0,0,0.00117683410645,0.514585971832,0.764598846436,LearningTask,,,60.1352012032,3,2015_May_06_2049,9999,
,,,z,0,-200,,,,,,,,,,4,0,8,0,,,,,,,,0.25,stop,crossmagenta.gif,z,1,0.335014104843,4,1.52116990089,4,5,2,0,0,0.000965118408203,0.514469146729,0.764401197433,LearningTask,,,60.1352012032,3,2015_May_06_2049,9999,
,,,m,0,200,,,,,,,,,,4,1,9,1,,,,,,,,0.25,stop,diamondgray.gif,m,1,0.384938955307,4,1.52116990089,4,6,2,0,0,0.00111603736877,0.51443696022,0.764419078827,LearningTask,,,60.1352012032,3,2015_May_06_2049,9999,
