StopOrGo,Amount,Shape,Color,StopOrGoAndAmountLoop.thisRepN,StopOrGoAndAmountLoop.thisTrialN,StopOrGoAndAmountLoop.thisN,StopOrGoAndAmountLoop.thisIndex,ShapeLoop.thisRepN,ShapeLoop.thisTrialN,ShapeLoop.thisN,ShapeLoop.thisIndex,ColorLoop.thisRepN,ColorLoop.thisTrialN,ColorLoop.thisN,ColorLoop.thisIndex,expName,gender (m/f),age,frameRate,session,date,participant,
Go,2,invertedTriangle,gray,0,0,0,5,0,0,0,3,0,0,0,5,LearningTask,,,60.0839452551,3,2015_Mar_03_1245,,
Go,2,invertedTriangle,orange,0,0,0,5,0,0,0,3,0,1,1,2,LearningTask,,,60.0839452551,3,2015_Mar_03_1245,,
Go,2,invertedTriangle,green,0,0,0,5,0,0,0,3,0,2,2,4,LearningTask,,,60.0839452551,3,2015_Mar_03_1245,,
Go,2,invertedTriangle,magenta,0,0,0,5,0,0,0,3,0,3,3,3,LearningTask,,,60.0839452551,3,2015_Mar_03_1245,,
Go,2,invertedTriangle,white,0,0,0,5,0,0,0,3,0,4,4,1,LearningTask,,,60.0839452551,3,2015_Mar_03_1245,,
Go,2,invertedTriangle,blue,0,0,0,5,0,0,0,3,0,5,5,7,LearningTask,,,60.0839452551,3,2015_Mar_03_1245,,
Go,2,invertedTriangle,yellow,0,0,0,5,0,0,0,3,0,6,6,0,LearningTask,,,60.0839452551,3,2015_Mar_03_1245,,
Go,2,invertedTriangle,cyan,0,0,0,5,0,0,0,3,0,7,7,6,LearningTask,,,60.0839452551,3,2015_Mar_03_1245,,
Go,2,invertedTriangle,orange,0,0,0,5,0,0,0,3,1,0,8,2,LearningTask,,,60.0839452551,3,2015_Mar_03_1245,,
Go,2,invertedTriangle,gray,0,0,0,5,0,0,0,3,1,1,9,5,LearningTask,,,60.0839452551,3,2015_Mar_03_1245,,
Go,2,invertedTriangle,green,0,0,0,5,0,0,0,3,1,2,10,4,LearningTask,,,60.0839452551,3,2015_Mar_03_1245,,
Go,2,invertedTriangle,yellow,0,0,0,5,0,0,0,3,1,3,11,0,LearningTask,,,60.0839452551,3,2015_Mar_03_1245,,
Go,2,invertedTriangle,blue,0,0,0,5,0,0,0,3,1,4,12,7,LearningTask,,,60.0839452551,3,2015_Mar_03_1245,,
Go,2,invertedTriangle,cyan,0,0,0,5,0,0,0,3,1,5,13,6,LearningTask,,,60.0839452551,3,2015_Mar_03_1245,,
Go,2,invertedTriangle,magenta,0,0,0,5,0,0,0,3,1,6,14,3,LearningTask,,,60.0839452551,3,2015_Mar_03_1245,,
Go,2,invertedTriangle,white,0,0,0,5,0,0,0,3,1,7,15,1,LearningTask,,,60.0839452551,3,2015_Mar_03_1245,,
Go,2,invertedTriangle,gray,0,0,0,5,0,0,0,3,2,0,16,5,LearningTask,,,60.0839452551,3,2015_Mar_03_1245,,
Go,2,invertedTriangle,white,0,0,0,5,0,0,0,3,2,1,17,1,LearningTask,,,60.0839452551,3,2015_Mar_03_1245,,
Go,2,invertedTriangle,yellow,0,0,0,5,0,0,0,3,2,2,18,0,LearningTask,,,60.0839452551,3,2015_Mar_03_1245,,
Go,2,invertedTriangle,orange,0,0,0,5,0,0,0,3,2,3,19,2,LearningTask,,,60.0839452551,3,2015_Mar_03_1245,,
Go,2,invertedTriangle,magenta,0,0,0,5,0,0,0,3,2,4,20,3,LearningTask,,,60.0839452551,3,2015_Mar_03_1245,,
Go,2,invertedTriangle,green,0,0,0,5,0,0,0,3,2,5,21,4,LearningTask,,,60.0839452551,3,2015_Mar_03_1245,,
Go,2,invertedTriangle,cyan,0,0,0,5,0,0,0,3,2,6,22,6,LearningTask,,,60.0839452551,3,2015_Mar_03_1245,,
Go,2,invertedTriangle,blue,0,0,0,5,0,0,0,3,2,7,23,7,LearningTask,,,60.0839452551,3,2015_Mar_03_1245,,
Go,2,invertedTriangle,green,0,0,0,5,0,0,0,3,3,0,24,4,LearningTask,,,60.0839452551,3,2015_Mar_03_1245,,
Go,2,invertedTriangle,yellow,0,0,0,5,0,0,0,3,3,1,25,0,LearningTask,,,60.0839452551,3,2015_Mar_03_1245,,
Go,2,invertedTriangle,magenta,0,0,0,5,0,0,0,3,3,2,26,3,LearningTask,,,60.0839452551,3,2015_Mar_03_1245,,
Go,2,invertedTriangle,orange,0,0,0,5,0,0,0,3,3,3,27,2,LearningTask,,,60.0839452551,3,2015_Mar_03_1245,,
Go,2,invertedTriangle,white,0,0,0,5,0,0,0,3,3,4,28,1,LearningTask,,,60.0839452551,3,2015_Mar_03_1245,,
Go,2,invertedTriangle,gray,0,0,0,5,0,0,0,3,3,5,29,5,LearningTask,,,60.0839452551,3,2015_Mar_03_1245,,
Go,2,invertedTriangle,cyan,0,0,0,5,0,0,0,3,3,6,30,6,LearningTask,,,60.0839452551,3,2015_Mar_03_1245,,
Go,2,invertedTriangle,blue,0,0,0,5,0,0,0,3,3,7,31,7,LearningTask,,,60.0839452551,3,2015_Mar_03_1245,,
Go,2,invertedTriangle,yellow,0,0,0,5,0,0,0,3,4,0,32,0,LearningTask,,,60.0839452551,3,2015_Mar_03_1245,,
Go,2,invertedTriangle,magenta,0,0,0,5,0,0,0,3,4,1,33,3,LearningTask,,,60.0839452551,3,2015_Mar_03_1245,,
Go,2,invertedTriangle,white,0,0,0,5,0,0,0,3,4,2,34,1,LearningTask,,,60.0839452551,3,2015_Mar_03_1245,,
Go,2,invertedTriangle,orange,0,0,0,5,0,0,0,3,4,3,35,2,LearningTask,,,60.0839452551,3,2015_Mar_03_1245,,
Go,2,invertedTriangle,green,0,0,0,5,0,0,0,3,4,4,36,4,LearningTask,,,60.0839452551,3,2015_Mar_03_1245,,
Go,2,invertedTriangle,blue,0,0,0,5,0,0,0,3,4,5,37,7,LearningTask,,,60.0839452551,3,2015_Mar_03_1245,,
Go,2,invertedTriangle,gray,0,0,0,5,0,0,0,3,4,6,38,5,LearningTask,,,60.0839452551,3,2015_Mar_03_1245,,
Go,2,invertedTriangle,cyan,0,0,0,5,0,0,0,3,4,7,39,6,LearningTask,,,60.0839452551,3,2015_Mar_03_1245,,
Go,2,invertedTriangle,gray,0,0,0,5,0,0,0,3,5,0,40,5,LearningTask,,,60.0839452551,3,2015_Mar_03_1245,,
Go,2,invertedTriangle,white,0,0,0,5,0,0,0,3,5,1,41,1,LearningTask,,,60.0839452551,3,2015_Mar_03_1245,,
Go,2,invertedTriangle,magenta,0,0,0,5,0,0,0,3,5,2,42,3,LearningTask,,,60.0839452551,3,2015_Mar_03_1245,,
Go,2,invertedTriangle,cyan,0,0,0,5,0,0,0,3,5,3,43,6,LearningTask,,,60.0839452551,3,2015_Mar_03_1245,,
Go,2,invertedTriangle,yellow,0,0,0,5,0,0,0,3,5,4,44,0,LearningTask,,,60.0839452551,3,2015_Mar_03_1245,,
Go,2,invertedTriangle,green,0,0,0,5,0,0,0,3,5,5,45,4,LearningTask,,,60.0839452551,3,2015_Mar_03_1245,,
Go,2,invertedTriangle,orange,0,0,0,5,0,0,0,3,5,6,46,2,LearningTask,,,60.0839452551,3,2015_Mar_03_1245,,
Go,2,invertedTriangle,blue,0,0,0,5,0,0,0,3,5,7,47,7,LearningTask,,,60.0839452551,3,2015_Mar_03_1245,,
Go,2,invertedTriangle,green,0,0,0,5,0,0,0,3,6,0,48,4,LearningTask,,,60.0839452551,3,2015_Mar_03_1245,,
Go,2,invertedTriangle,gray,0,0,0,5,0,0,0,3,6,1,49,5,LearningTask,,,60.0839452551,3,2015_Mar_03_1245,,
Go,2,invertedTriangle,white,0,0,0,5,0,0,0,3,6,2,50,1,LearningTask,,,60.0839452551,3,2015_Mar_03_1245,,
Go,2,invertedTriangle,magenta,0,0,0,5,0,0,0,3,6,3,51,3,LearningTask,,,60.0839452551,3,2015_Mar_03_1245,,
Go,2,invertedTriangle,orange,0,0,0,5,0,0,0,3,6,4,52,2,LearningTask,,,60.0839452551,3,2015_Mar_03_1245,,
Go,2,invertedTriangle,blue,0,0,0,5,0,0,0,3,6,5,53,7,LearningTask,,,60.0839452551,3,2015_Mar_03_1245,,
Go,2,invertedTriangle,cyan,0,0,0,5,0,0,0,3,6,6,54,6,LearningTask,,,60.0839452551,3,2015_Mar_03_1245,,
Go,2,invertedTriangle,yellow,0,0,0,5,0,0,0,3,6,7,55,0,LearningTask,,,60.0839452551,3,2015_Mar_03_1245,,
Go,2,invertedTriangle,magenta,0,0,0,5,0,0,0,3,7,0,56,3,LearningTask,,,60.0839452551,3,2015_Mar_03_1245,,
Go,2,invertedTriangle,green,0,0,0,5,0,0,0,3,7,1,57,4,LearningTask,,,60.0839452551,3,2015_Mar_03_1245,,
Go,2,invertedTriangle,blue,0,0,0,5,0,0,0,3,7,2,58,7,LearningTask,,,60.0839452551,3,2015_Mar_03_1245,,
Go,2,invertedTriangle,yellow,0,0,0,5,0,0,0,3,7,3,59,0,LearningTask,,,60.0839452551,3,2015_Mar_03_1245,,
Go,2,invertedTriangle,cyan,0,0,0,5,0,0,0,3,7,4,60,6,LearningTask,,,60.0839452551,3,2015_Mar_03_1245,,
Go,2,invertedTriangle,gray,0,0,0,5,0,0,0,3,7,5,61,5,LearningTask,,,60.0839452551,3,2015_Mar_03_1245,,
Go,2,invertedTriangle,white,0,0,0,5,0,0,0,3,7,6,62,1,LearningTask,,,60.0839452551,3,2015_Mar_03_1245,,
Go,2,invertedTriangle,orange,0,0,0,5,0,0,0,3,7,7,63,2,LearningTask,,,60.0839452551,3,2015_Mar_03_1245,,
Go,2,invertedTriangle,,0,0,0,5,0,0,0,3,,,,,LearningTask,,,60.0839452551,3,2015_Mar_03_1245,,
Go,2,circle,white,0,0,0,5,0,1,1,7,0,0,0,1,LearningTask,,,60.0839452551,3,2015_Mar_03_1245,,
Go,2,circle,yellow,0,0,0,5,0,1,1,7,0,1,1,0,LearningTask,,,60.0839452551,3,2015_Mar_03_1245,,
Go,2,circle,orange,0,0,0,5,0,1,1,7,0,2,2,2,LearningTask,,,60.0839452551,3,2015_Mar_03_1245,,
Go,2,circle,cyan,0,0,0,5,0,1,1,7,0,3,3,6,LearningTask,,,60.0839452551,3,2015_Mar_03_1245,,
Go,2,circle,magenta,0,0,0,5,0,1,1,7,0,4,4,3,LearningTask,,,60.0839452551,3,2015_Mar_03_1245,,
Go,2,circle,gray,0,0,0,5,0,1,1,7,0,5,5,5,LearningTask,,,60.0839452551,3,2015_Mar_03_1245,,
Go,2,circle,green,0,0,0,5,0,1,1,7,0,6,6,4,LearningTask,,,60.0839452551,3,2015_Mar_03_1245,,
Go,2,circle,blue,0,0,0,5,0,1,1,7,0,7,7,7,LearningTask,,,60.0839452551,3,2015_Mar_03_1245,,
Go,2,circle,orange,0,0,0,5,0,1,1,7,1,0,8,2,LearningTask,,,60.0839452551,3,2015_Mar_03_1245,,
Go,2,circle,gray,0,0,0,5,0,1,1,7,1,1,9,5,LearningTask,,,60.0839452551,3,2015_Mar_03_1245,,
Go,2,circle,white,0,0,0,5,0,1,1,7,1,2,10,1,LearningTask,,,60.0839452551,3,2015_Mar_03_1245,,
Go,2,circle,magenta,0,0,0,5,0,1,1,7,1,3,11,3,LearningTask,,,60.0839452551,3,2015_Mar_03_1245,,
Go,2,circle,yellow,0,0,0,5,0,1,1,7,1,4,12,0,LearningTask,,,60.0839452551,3,2015_Mar_03_1245,,
Go,2,circle,cyan,0,0,0,5,0,1,1,7,1,5,13,6,LearningTask,,,60.0839452551,3,2015_Mar_03_1245,,
Go,2,circle,blue,0,0,0,5,0,1,1,7,1,6,14,7,LearningTask,,,60.0839452551,3,2015_Mar_03_1245,,
Go,2,circle,green,0,0,0,5,0,1,1,7,1,7,15,4,LearningTask,,,60.0839452551,3,2015_Mar_03_1245,,
Go,2,circle,cyan,0,0,0,5,0,1,1,7,2,0,16,6,LearningTask,,,60.0839452551,3,2015_Mar_03_1245,,
Go,2,circle,yellow,0,0,0,5,0,1,1,7,2,1,17,0,LearningTask,,,60.0839452551,3,2015_Mar_03_1245,,
Go,2,circle,magenta,0,0,0,5,0,1,1,7,2,2,18,3,LearningTask,,,60.0839452551,3,2015_Mar_03_1245,,
Go,2,circle,blue,0,0,0,5,0,1,1,7,2,3,19,7,LearningTask,,,60.0839452551,3,2015_Mar_03_1245,,
Go,2,circle,white,0,0,0,5,0,1,1,7,2,4,20,1,LearningTask,,,60.0839452551,3,2015_Mar_03_1245,,
Go,2,circle,gray,0,0,0,5,0,1,1,7,2,5,21,5,LearningTask,,,60.0839452551,3,2015_Mar_03_1245,,
Go,2,circle,orange,0,0,0,5,0,1,1,7,2,6,22,2,LearningTask,,,60.0839452551,3,2015_Mar_03_1245,,
Go,2,circle,green,0,0,0,5,0,1,1,7,2,7,23,4,LearningTask,,,60.0839452551,3,2015_Mar_03_1245,,
Go,2,circle,magenta,0,0,0,5,0,1,1,7,3,0,24,3,LearningTask,,,60.0839452551,3,2015_Mar_03_1245,,
Go,2,circle,green,0,0,0,5,0,1,1,7,3,1,25,4,LearningTask,,,60.0839452551,3,2015_Mar_03_1245,,
Go,2,circle,gray,0,0,0,5,0,1,1,7,3,2,26,5,LearningTask,,,60.0839452551,3,2015_Mar_03_1245,,
Go,2,circle,cyan,0,0,0,5,0,1,1,7,3,3,27,6,LearningTask,,,60.0839452551,3,2015_Mar_03_1245,,
Go,2,circle,orange,0,0,0,5,0,1,1,7,3,4,28,2,LearningTask,,,60.0839452551,3,2015_Mar_03_1245,,
Go,2,circle,white,0,0,0,5,0,1,1,7,3,5,29,1,LearningTask,,,60.0839452551,3,2015_Mar_03_1245,,
Go,2,circle,blue,0,0,0,5,0,1,1,7,3,6,30,7,LearningTask,,,60.0839452551,3,2015_Mar_03_1245,,
Go,2,circle,yellow,0,0,0,5,0,1,1,7,3,7,31,0,LearningTask,,,60.0839452551,3,2015_Mar_03_1245,,
Go,2,circle,green,0,0,0,5,0,1,1,7,4,0,32,4,LearningTask,,,60.0839452551,3,2015_Mar_03_1245,,
Go,2,circle,white,0,0,0,5,0,1,1,7,4,1,33,1,LearningTask,,,60.0839452551,3,2015_Mar_03_1245,,
Go,2,circle,blue,0,0,0,5,0,1,1,7,4,2,34,7,LearningTask,,,60.0839452551,3,2015_Mar_03_1245,,
Go,2,circle,magenta,0,0,0,5,0,1,1,7,4,3,35,3,LearningTask,,,60.0839452551,3,2015_Mar_03_1245,,
Go,2,circle,cyan,0,0,0,5,0,1,1,7,4,4,36,6,LearningTask,,,60.0839452551,3,2015_Mar_03_1245,,
Go,2,circle,gray,0,0,0,5,0,1,1,7,4,5,37,5,LearningTask,,,60.0839452551,3,2015_Mar_03_1245,,
Go,2,circle,orange,0,0,0,5,0,1,1,7,4,6,38,2,LearningTask,,,60.0839452551,3,2015_Mar_03_1245,,
Go,2,circle,yellow,0,0,0,5,0,1,1,7,4,7,39,0,LearningTask,,,60.0839452551,3,2015_Mar_03_1245,,
Go,2,circle,cyan,0,0,0,5,0,1,1,7,5,0,40,6,LearningTask,,,60.0839452551,3,2015_Mar_03_1245,,
Go,2,circle,orange,0,0,0,5,0,1,1,7,5,1,41,2,LearningTask,,,60.0839452551,3,2015_Mar_03_1245,,
Go,2,circle,blue,0,0,0,5,0,1,1,7,5,2,42,7,LearningTask,,,60.0839452551,3,2015_Mar_03_1245,,
Go,2,circle,white,0,0,0,5,0,1,1,7,5,3,43,1,LearningTask,,,60.0839452551,3,2015_Mar_03_1245,,
Go,2,circle,gray,0,0,0,5,0,1,1,7,5,4,44,5,LearningTask,,,60.0839452551,3,2015_Mar_03_1245,,
Go,2,circle,magenta,0,0,0,5,0,1,1,7,5,5,45,3,LearningTask,,,60.0839452551,3,2015_Mar_03_1245,,
Go,2,circle,green,0,0,0,5,0,1,1,7,5,6,46,4,LearningTask,,,60.0839452551,3,2015_Mar_03_1245,,
Go,2,circle,yellow,0,0,0,5,0,1,1,7,5,7,47,0,LearningTask,,,60.0839452551,3,2015_Mar_03_1245,,
Go,2,circle,cyan,0,0,0,5,0,1,1,7,6,0,48,6,LearningTask,,,60.0839452551,3,2015_Mar_03_1245,,
Go,2,circle,yellow,0,0,0,5,0,1,1,7,6,1,49,0,LearningTask,,,60.0839452551,3,2015_Mar_03_1245,,
Go,2,circle,gray,0,0,0,5,0,1,1,7,6,2,50,5,LearningTask,,,60.0839452551,3,2015_Mar_03_1245,,
Go,2,circle,magenta,0,0,0,5,0,1,1,7,6,3,51,3,LearningTask,,,60.0839452551,3,2015_Mar_03_1245,,
Go,2,circle,orange,0,0,0,5,0,1,1,7,6,4,52,2,LearningTask,,,60.0839452551,3,2015_Mar_03_1245,,
Go,2,circle,blue,0,0,0,5,0,1,1,7,6,5,53,7,LearningTask,,,60.0839452551,3,2015_Mar_03_1245,,
Go,2,circle,green,0,0,0,5,0,1,1,7,6,6,54,4,LearningTask,,,60.0839452551,3,2015_Mar_03_1245,,
Go,2,circle,white,0,0,0,5,0,1,1,7,6,7,55,1,LearningTask,,,60.0839452551,3,2015_Mar_03_1245,,
Go,2,circle,green,0,0,0,5,0,1,1,7,7,0,56,4,LearningTask,,,60.0839452551,3,2015_Mar_03_1245,,
Go,2,circle,magenta,0,0,0,5,0,1,1,7,7,1,57,3,LearningTask,,,60.0839452551,3,2015_Mar_03_1245,,
Go,2,circle,yellow,0,0,0,5,0,1,1,7,7,2,58,0,LearningTask,,,60.0839452551,3,2015_Mar_03_1245,,
Go,2,circle,cyan,0,0,0,5,0,1,1,7,7,3,59,6,LearningTask,,,60.0839452551,3,2015_Mar_03_1245,,
Go,2,circle,orange,0,0,0,5,0,1,1,7,7,4,60,2,LearningTask,,,60.0839452551,3,2015_Mar_03_1245,,
Go,2,circle,gray,0,0,0,5,0,1,1,7,7,5,61,5,LearningTask,,,60.0839452551,3,2015_Mar_03_1245,,
Go,2,circle,white,0,0,0,5,0,1,1,7,7,6,62,1,LearningTask,,,60.0839452551,3,2015_Mar_03_1245,,
Go,2,circle,blue,0,0,0,5,0,1,1,7,7,7,63,7,LearningTask,,,60.0839452551,3,2015_Mar_03_1245,,
Go,2,circle,,0,0,0,5,0,1,1,7,,,,,LearningTask,,,60.0839452551,3,2015_Mar_03_1245,,
Go,2,line,cyan,0,0,0,5,0,2,2,2,0,0,0,6,LearningTask,,,60.0839452551,3,2015_Mar_03_1245,,
Go,2,line,gray,0,0,0,5,0,2,2,2,0,1,1,5,LearningTask,,,60.0839452551,3,2015_Mar_03_1245,,
Go,2,line,green,0,0,0,5,0,2,2,2,0,2,2,4,LearningTask,,,60.0839452551,3,2015_Mar_03_1245,,
Go,2,line,yellow,0,0,0,5,0,2,2,2,0,3,3,0,LearningTask,,,60.0839452551,3,2015_Mar_03_1245,,
Go,2,line,blue,0,0,0,5,0,2,2,2,0,4,4,7,LearningTask,,,60.0839452551,3,2015_Mar_03_1245,,
Go,2,line,white,0,0,0,5,0,2,2,2,0,5,5,1,LearningTask,,,60.0839452551,3,2015_Mar_03_1245,,
Go,2,line,orange,0,0,0,5,0,2,2,2,0,6,6,2,LearningTask,,,60.0839452551,3,2015_Mar_03_1245,,
Go,2,line,magenta,0,0,0,5,0,2,2,2,0,7,7,3,LearningTask,,,60.0839452551,3,2015_Mar_03_1245,,
Go,2,line,orange,0,0,0,5,0,2,2,2,1,0,8,2,LearningTask,,,60.0839452551,3,2015_Mar_03_1245,,
Go,2,line,gray,0,0,0,5,0,2,2,2,1,1,9,5,LearningTask,,,60.0839452551,3,2015_Mar_03_1245,,
Go,2,line,blue,0,0,0,5,0,2,2,2,1,2,10,7,LearningTask,,,60.0839452551,3,2015_Mar_03_1245,,
Go,2,line,green,0,0,0,5,0,2,2,2,1,3,11,4,LearningTask,,,60.0839452551,3,2015_Mar_03_1245,,
Go,2,line,white,0,0,0,5,0,2,2,2,1,4,12,1,LearningTask,,,60.0839452551,3,2015_Mar_03_1245,,
Go,2,line,yellow,0,0,0,5,0,2,2,2,1,5,13,0,LearningTask,,,60.0839452551,3,2015_Mar_03_1245,,
Go,2,line,magenta,0,0,0,5,0,2,2,2,1,6,14,3,LearningTask,,,60.0839452551,3,2015_Mar_03_1245,,
Go,2,line,cyan,0,0,0,5,0,2,2,2,1,7,15,6,LearningTask,,,60.0839452551,3,2015_Mar_03_1245,,
Go,2,line,orange,0,0,0,5,0,2,2,2,2,0,16,2,LearningTask,,,60.0839452551,3,2015_Mar_03_1245,,
Go,2,line,green,0,0,0,5,0,2,2,2,2,1,17,4,LearningTask,,,60.0839452551,3,2015_Mar_03_1245,,
Go,2,line,gray,0,0,0,5,0,2,2,2,2,2,18,5,LearningTask,,,60.0839452551,3,2015_Mar_03_1245,,
Go,2,line,cyan,0,0,0,5,0,2,2,2,2,3,19,6,LearningTask,,,60.0839452551,3,2015_Mar_03_1245,,
Go,2,line,white,0,0,0,5,0,2,2,2,2,4,20,1,LearningTask,,,60.0839452551,3,2015_Mar_03_1245,,
Go,2,line,blue,0,0,0,5,0,2,2,2,2,5,21,7,LearningTask,,,60.0839452551,3,2015_Mar_03_1245,,
Go,2,line,magenta,0,0,0,5,0,2,2,2,2,6,22,3,LearningTask,,,60.0839452551,3,2015_Mar_03_1245,,
Go,2,line,yellow,0,0,0,5,0,2,2,2,2,7,23,0,LearningTask,,,60.0839452551,3,2015_Mar_03_1245,,
Go,2,line,orange,0,0,0,5,0,2,2,2,3,0,24,2,LearningTask,,,60.0839452551,3,2015_Mar_03_1245,,
Go,2,line,yellow,0,0,0,5,0,2,2,2,3,1,25,0,LearningTask,,,60.0839452551,3,2015_Mar_03_1245,,
Go,2,line,green,0,0,0,5,0,2,2,2,3,2,26,4,LearningTask,,,60.0839452551,3,2015_Mar_03_1245,,
Go,2,line,magenta,0,0,0,5,0,2,2,2,3,3,27,3,LearningTask,,,60.0839452551,3,2015_Mar_03_1245,,
Go,2,line,gray,0,0,0,5,0,2,2,2,3,4,28,5,LearningTask,,,60.0839452551,3,2015_Mar_03_1245,,
Go,2,line,blue,0,0,0,5,0,2,2,2,3,5,29,7,LearningTask,,,60.0839452551,3,2015_Mar_03_1245,,
Go,2,line,white,0,0,0,5,0,2,2,2,3,6,30,1,LearningTask,,,60.0839452551,3,2015_Mar_03_1245,,
Go,2,line,cyan,0,0,0,5,0,2,2,2,3,7,31,6,LearningTask,,,60.0839452551,3,2015_Mar_03_1245,,
Go,2,line,gray,0,0,0,5,0,2,2,2,4,0,32,5,LearningTask,,,60.0839452551,3,2015_Mar_03_1245,,
Go,2,line,blue,0,0,0,5,0,2,2,2,4,1,33,7,LearningTask,,,60.0839452551,3,2015_Mar_03_1245,,
Go,2,line,cyan,0,0,0,5,0,2,2,2,4,2,34,6,LearningTask,,,60.0839452551,3,2015_Mar_03_1245,,
Go,2,line,yellow,0,0,0,5,0,2,2,2,4,3,35,0,LearningTask,,,60.0839452551,3,2015_Mar_03_1245,,
Go,2,line,green,0,0,0,5,0,2,2,2,4,4,36,4,LearningTask,,,60.0839452551,3,2015_Mar_03_1245,,
Go,2,line,orange,0,0,0,5,0,2,2,2,4,5,37,2,LearningTask,,,60.0839452551,3,2015_Mar_03_1245,,
Go,2,line,magenta,0,0,0,5,0,2,2,2,4,6,38,3,LearningTask,,,60.0839452551,3,2015_Mar_03_1245,,
Go,2,line,white,0,0,0,5,0,2,2,2,4,7,39,1,LearningTask,,,60.0839452551,3,2015_Mar_03_1245,,
Go,2,line,magenta,0,0,0,5,0,2,2,2,5,0,40,3,LearningTask,,,60.0839452551,3,2015_Mar_03_1245,,
Go,2,line,orange,0,0,0,5,0,2,2,2,5,1,41,2,LearningTask,,,60.0839452551,3,2015_Mar_03_1245,,
Go,2,line,yellow,0,0,0,5,0,2,2,2,5,2,42,0,LearningTask,,,60.0839452551,3,2015_Mar_03_1245,,
Go,2,line,green,0,0,0,5,0,2,2,2,5,3,43,4,LearningTask,,,60.0839452551,3,2015_Mar_03_1245,,
Go,2,line,white,0,0,0,5,0,2,2,2,5,4,44,1,LearningTask,,,60.0839452551,3,2015_Mar_03_1245,,
Go,2,line,gray,0,0,0,5,0,2,2,2,5,5,45,5,LearningTask,,,60.0839452551,3,2015_Mar_03_1245,,
Go,2,line,cyan,0,0,0,5,0,2,2,2,5,6,46,6,LearningTask,,,60.0839452551,3,2015_Mar_03_1245,,
Go,2,line,blue,0,0,0,5,0,2,2,2,5,7,47,7,LearningTask,,,60.0839452551,3,2015_Mar_03_1245,,
Go,2,line,green,0,0,0,5,0,2,2,2,6,0,48,4,LearningTask,,,60.0839452551,3,2015_Mar_03_1245,,
Go,2,line,gray,0,0,0,5,0,2,2,2,6,1,49,5,LearningTask,,,60.0839452551,3,2015_Mar_03_1245,,
Go,2,line,orange,0,0,0,5,0,2,2,2,6,2,50,2,LearningTask,,,60.0839452551,3,2015_Mar_03_1245,,
Go,2,line,blue,0,0,0,5,0,2,2,2,6,3,51,7,LearningTask,,,60.0839452551,3,2015_Mar_03_1245,,
Go,2,line,cyan,0,0,0,5,0,2,2,2,6,4,52,6,LearningTask,,,60.0839452551,3,2015_Mar_03_1245,,
Go,2,line,magenta,0,0,0,5,0,2,2,2,6,5,53,3,LearningTask,,,60.0839452551,3,2015_Mar_03_1245,,
Go,2,line,yellow,0,0,0,5,0,2,2,2,6,6,54,0,LearningTask,,,60.0839452551,3,2015_Mar_03_1245,,
Go,2,line,white,0,0,0,5,0,2,2,2,6,7,55,1,LearningTask,,,60.0839452551,3,2015_Mar_03_1245,,
Go,2,line,gray,0,0,0,5,0,2,2,2,7,0,56,5,LearningTask,,,60.0839452551,3,2015_Mar_03_1245,,
Go,2,line,white,0,0,0,5,0,2,2,2,7,1,57,1,LearningTask,,,60.0839452551,3,2015_Mar_03_1245,,
Go,2,line,green,0,0,0,5,0,2,2,2,7,2,58,4,LearningTask,,,60.0839452551,3,2015_Mar_03_1245,,
Go,2,line,magenta,0,0,0,5,0,2,2,2,7,3,59,3,LearningTask,,,60.0839452551,3,2015_Mar_03_1245,,
Go,2,line,yellow,0,0,0,5,0,2,2,2,7,4,60,0,LearningTask,,,60.0839452551,3,2015_Mar_03_1245,,
Go,2,line,cyan,0,0,0,5,0,2,2,2,7,5,61,6,LearningTask,,,60.0839452551,3,2015_Mar_03_1245,,
Go,2,line,orange,0,0,0,5,0,2,2,2,7,6,62,2,LearningTask,,,60.0839452551,3,2015_Mar_03_1245,,
Go,2,line,blue,0,0,0,5,0,2,2,2,7,7,63,7,LearningTask,,,60.0839452551,3,2015_Mar_03_1245,,
Go,2,line,,0,0,0,5,0,2,2,2,,,,,LearningTask,,,60.0839452551,3,2015_Mar_03_1245,,
Go,2,cross,green,0,0,0,5,0,3,3,6,0,0,0,4,LearningTask,,,60.0839452551,3,2015_Mar_03_1245,,
Go,2,cross,magenta,0,0,0,5,0,3,3,6,0,1,1,3,LearningTask,,,60.0839452551,3,2015_Mar_03_1245,,
Go,2,cross,cyan,0,0,0,5,0,3,3,6,0,2,2,6,LearningTask,,,60.0839452551,3,2015_Mar_03_1245,,
Go,2,cross,orange,0,0,0,5,0,3,3,6,0,3,3,2,LearningTask,,,60.0839452551,3,2015_Mar_03_1245,,
Go,2,cross,gray,0,0,0,5,0,3,3,6,0,4,4,5,LearningTask,,,60.0839452551,3,2015_Mar_03_1245,,
Go,2,cross,white,0,0,0,5,0,3,3,6,0,5,5,1,LearningTask,,,60.0839452551,3,2015_Mar_03_1245,,
Go,2,cross,yellow,0,0,0,5,0,3,3,6,0,6,6,0,LearningTask,,,60.0839452551,3,2015_Mar_03_1245,,
Go,2,cross,blue,0,0,0,5,0,3,3,6,0,7,7,7,LearningTask,,,60.0839452551,3,2015_Mar_03_1245,,
Go,2,cross,gray,0,0,0,5,0,3,3,6,1,0,8,5,LearningTask,,,60.0839452551,3,2015_Mar_03_1245,,
Go,2,cross,white,0,0,0,5,0,3,3,6,1,1,9,1,LearningTask,,,60.0839452551,3,2015_Mar_03_1245,,
Go,2,cross,magenta,0,0,0,5,0,3,3,6,1,2,10,3,LearningTask,,,60.0839452551,3,2015_Mar_03_1245,,
Go,2,cross,orange,0,0,0,5,0,3,3,6,1,3,11,2,LearningTask,,,60.0839452551,3,2015_Mar_03_1245,,
Go,2,cross,cyan,0,0,0,5,0,3,3,6,1,4,12,6,LearningTask,,,60.0839452551,3,2015_Mar_03_1245,,
Go,2,cross,green,0,0,0,5,0,3,3,6,1,5,13,4,LearningTask,,,60.0839452551,3,2015_Mar_03_1245,,
Go,2,cross,yellow,0,0,0,5,0,3,3,6,1,6,14,0,LearningTask,,,60.0839452551,3,2015_Mar_03_1245,,
Go,2,cross,blue,0,0,0,5,0,3,3,6,1,7,15,7,LearningTask,,,60.0839452551,3,2015_Mar_03_1245,,
Go,2,cross,cyan,0,0,0,5,0,3,3,6,2,0,16,6,LearningTask,,,60.0839452551,3,2015_Mar_03_1245,,
Go,2,cross,orange,0,0,0,5,0,3,3,6,2,1,17,2,LearningTask,,,60.0839452551,3,2015_Mar_03_1245,,
Go,2,cross,blue,0,0,0,5,0,3,3,6,2,2,18,7,LearningTask,,,60.0839452551,3,2015_Mar_03_1245,,
Go,2,cross,green,0,0,0,5,0,3,3,6,2,3,19,4,LearningTask,,,60.0839452551,3,2015_Mar_03_1245,,
Go,2,cross,gray,0,0,0,5,0,3,3,6,2,4,20,5,LearningTask,,,60.0839452551,3,2015_Mar_03_1245,,
Go,2,cross,white,0,0,0,5,0,3,3,6,2,5,21,1,LearningTask,,,60.0839452551,3,2015_Mar_03_1245,,
Go,2,cross,yellow,0,0,0,5,0,3,3,6,2,6,22,0,LearningTask,,,60.0839452551,3,2015_Mar_03_1245,,
Go,2,cross,magenta,0,0,0,5,0,3,3,6,2,7,23,3,LearningTask,,,60.0839452551,3,2015_Mar_03_1245,,
Go,2,cross,yellow,0,0,0,5,0,3,3,6,3,0,24,0,LearningTask,,,60.0839452551,3,2015_Mar_03_1245,,
Go,2,cross,magenta,0,0,0,5,0,3,3,6,3,1,25,3,LearningTask,,,60.0839452551,3,2015_Mar_03_1245,,
Go,2,cross,gray,0,0,0,5,0,3,3,6,3,2,26,5,LearningTask,,,60.0839452551,3,2015_Mar_03_1245,,
Go,2,cross,blue,0,0,0,5,0,3,3,6,3,3,27,7,LearningTask,,,60.0839452551,3,2015_Mar_03_1245,,
Go,2,cross,white,0,0,0,5,0,3,3,6,3,4,28,1,LearningTask,,,60.0839452551,3,2015_Mar_03_1245,,
Go,2,cross,cyan,0,0,0,5,0,3,3,6,3,5,29,6,LearningTask,,,60.0839452551,3,2015_Mar_03_1245,,
Go,2,cross,green,0,0,0,5,0,3,3,6,3,6,30,4,LearningTask,,,60.0839452551,3,2015_Mar_03_1245,,
Go,2,cross,orange,0,0,0,5,0,3,3,6,3,7,31,2,LearningTask,,,60.0839452551,3,2015_Mar_03_1245,,
Go,2,cross,blue,0,0,0,5,0,3,3,6,4,0,32,7,LearningTask,,,60.0839452551,3,2015_Mar_03_1245,,
Go,2,cross,cyan,0,0,0,5,0,3,3,6,4,1,33,6,LearningTask,,,60.0839452551,3,2015_Mar_03_1245,,
Go,2,cross,orange,0,0,0,5,0,3,3,6,4,2,34,2,LearningTask,,,60.0839452551,3,2015_Mar_03_1245,,
Go,2,cross,green,0,0,0,5,0,3,3,6,4,3,35,4,LearningTask,,,60.0839452551,3,2015_Mar_03_1245,,
Go,2,cross,yellow,0,0,0,5,0,3,3,6,4,4,36,0,LearningTask,,,60.0839452551,3,2015_Mar_03_1245,,
Go,2,cross,magenta,0,0,0,5,0,3,3,6,4,5,37,3,LearningTask,,,60.0839452551,3,2015_Mar_03_1245,,
Go,2,cross,gray,0,0,0,5,0,3,3,6,4,6,38,5,LearningTask,,,60.0839452551,3,2015_Mar_03_1245,,
Go,2,cross,white,0,0,0,5,0,3,3,6,4,7,39,1,LearningTask,,,60.0839452551,3,2015_Mar_03_1245,,
Go,2,cross,white,0,0,0,5,0,3,3,6,5,0,40,1,LearningTask,,,60.0839452551,3,2015_Mar_03_1245,,
Go,2,cross,yellow,0,0,0,5,0,3,3,6,5,1,41,0,LearningTask,,,60.0839452551,3,2015_Mar_03_1245,,
Go,2,cross,gray,0,0,0,5,0,3,3,6,5,2,42,5,LearningTask,,,60.0839452551,3,2015_Mar_03_1245,,
Go,2,cross,cyan,0,0,0,5,0,3,3,6,5,3,43,6,LearningTask,,,60.0839452551,3,2015_Mar_03_1245,,
Go,2,cross,magenta,0,0,0,5,0,3,3,6,5,4,44,3,LearningTask,,,60.0839452551,3,2015_Mar_03_1245,,
Go,2,cross,blue,0,0,0,5,0,3,3,6,5,5,45,7,LearningTask,,,60.0839452551,3,2015_Mar_03_1245,,
Go,2,cross,orange,0,0,0,5,0,3,3,6,5,6,46,2,LearningTask,,,60.0839452551,3,2015_Mar_03_1245,,
Go,2,cross,green,0,0,0,5,0,3,3,6,5,7,47,4,LearningTask,,,60.0839452551,3,2015_Mar_03_1245,,
Go,2,cross,magenta,0,0,0,5,0,3,3,6,6,0,48,3,LearningTask,,,60.0839452551,3,2015_Mar_03_1245,,
Go,2,cross,yellow,0,0,0,5,0,3,3,6,6,1,49,0,LearningTask,,,60.0839452551,3,2015_Mar_03_1245,,
Go,2,cross,cyan,0,0,0,5,0,3,3,6,6,2,50,6,LearningTask,,,60.0839452551,3,2015_Mar_03_1245,,
Go,2,cross,white,0,0,0,5,0,3,3,6,6,3,51,1,LearningTask,,,60.0839452551,3,2015_Mar_03_1245,,
Go,2,cross,green,0,0,0,5,0,3,3,6,6,4,52,4,LearningTask,,,60.0839452551,3,2015_Mar_03_1245,,
Go,2,cross,blue,0,0,0,5,0,3,3,6,6,5,53,7,LearningTask,,,60.0839452551,3,2015_Mar_03_1245,,
Go,2,cross,orange,0,0,0,5,0,3,3,6,6,6,54,2,LearningTask,,,60.0839452551,3,2015_Mar_03_1245,,
Go,2,cross,gray,0,0,0,5,0,3,3,6,6,7,55,5,LearningTask,,,60.0839452551,3,2015_Mar_03_1245,,
Go,2,cross,yellow,0,0,0,5,0,3,3,6,7,0,56,0,LearningTask,,,60.0839452551,3,2015_Mar_03_1245,,
Go,2,cross,blue,0,0,0,5,0,3,3,6,7,1,57,7,LearningTask,,,60.0839452551,3,2015_Mar_03_1245,,
Go,2,cross,gray,0,0,0,5,0,3,3,6,7,2,58,5,LearningTask,,,60.0839452551,3,2015_Mar_03_1245,,
Go,2,cross,green,0,0,0,5,0,3,3,6,7,3,59,4,LearningTask,,,60.0839452551,3,2015_Mar_03_1245,,
Go,2,cross,white,0,0,0,5,0,3,3,6,7,4,60,1,LearningTask,,,60.0839452551,3,2015_Mar_03_1245,,
Go,2,cross,cyan,0,0,0,5,0,3,3,6,7,5,61,6,LearningTask,,,60.0839452551,3,2015_Mar_03_1245,,
Go,2,cross,magenta,0,0,0,5,0,3,3,6,7,6,62,3,LearningTask,,,60.0839452551,3,2015_Mar_03_1245,,
Go,2,cross,orange,0,0,0,5,0,3,3,6,7,7,63,2,LearningTask,,,60.0839452551,3,2015_Mar_03_1245,,
Go,2,cross,,0,0,0,5,0,3,3,6,,,,,LearningTask,,,60.0839452551,3,2015_Mar_03_1245,,
Go,2,triangle,gray,0,0,0,5,0,4,4,0,0,0,0,5,LearningTask,,,60.0839452551,3,2015_Mar_03_1245,,
Go,2,triangle,blue,0,0,0,5,0,4,4,0,0,1,1,7,LearningTask,,,60.0839452551,3,2015_Mar_03_1245,,
Go,2,triangle,orange,0,0,0,5,0,4,4,0,0,2,2,2,LearningTask,,,60.0839452551,3,2015_Mar_03_1245,,
Go,2,triangle,magenta,0,0,0,5,0,4,4,0,0,3,3,3,LearningTask,,,60.0839452551,3,2015_Mar_03_1245,,
Go,2,triangle,green,0,0,0,5,0,4,4,0,0,4,4,4,LearningTask,,,60.0839452551,3,2015_Mar_03_1245,,
Go,2,triangle,cyan,0,0,0,5,0,4,4,0,0,5,5,6,LearningTask,,,60.0839452551,3,2015_Mar_03_1245,,
Go,2,triangle,white,0,0,0,5,0,4,4,0,0,6,6,1,LearningTask,,,60.0839452551,3,2015_Mar_03_1245,,
Go,2,triangle,yellow,0,0,0,5,0,4,4,0,0,7,7,0,LearningTask,,,60.0839452551,3,2015_Mar_03_1245,,
Go,2,triangle,yellow,0,0,0,5,0,4,4,0,1,0,8,0,LearningTask,,,60.0839452551,3,2015_Mar_03_1245,,
Go,2,triangle,gray,0,0,0,5,0,4,4,0,1,1,9,5,LearningTask,,,60.0839452551,3,2015_Mar_03_1245,,
Go,2,triangle,white,0,0,0,5,0,4,4,0,1,2,10,1,LearningTask,,,60.0839452551,3,2015_Mar_03_1245,,
Go,2,triangle,cyan,0,0,0,5,0,4,4,0,1,3,11,6,LearningTask,,,60.0839452551,3,2015_Mar_03_1245,,
Go,2,triangle,magenta,0,0,0,5,0,4,4,0,1,4,12,3,LearningTask,,,60.0839452551,3,2015_Mar_03_1245,,
Go,2,triangle,green,0,0,0,5,0,4,4,0,1,5,13,4,LearningTask,,,60.0839452551,3,2015_Mar_03_1245,,
Go,2,triangle,orange,0,0,0,5,0,4,4,0,1,6,14,2,LearningTask,,,60.0839452551,3,2015_Mar_03_1245,,
Go,2,triangle,blue,0,0,0,5,0,4,4,0,1,7,15,7,LearningTask,,,60.0839452551,3,2015_Mar_03_1245,,
Go,2,triangle,orange,0,0,0,5,0,4,4,0,2,0,16,2,LearningTask,,,60.0839452551,3,2015_Mar_03_1245,,
Go,2,triangle,yellow,0,0,0,5,0,4,4,0,2,1,17,0,LearningTask,,,60.0839452551,3,2015_Mar_03_1245,,
Go,2,triangle,cyan,0,0,0,5,0,4,4,0,2,2,18,6,LearningTask,,,60.0839452551,3,2015_Mar_03_1245,,
Go,2,triangle,magenta,0,0,0,5,0,4,4,0,2,3,19,3,LearningTask,,,60.0839452551,3,2015_Mar_03_1245,,
Go,2,triangle,blue,0,0,0,5,0,4,4,0,2,4,20,7,LearningTask,,,60.0839452551,3,2015_Mar_03_1245,,
Go,2,triangle,green,0,0,0,5,0,4,4,0,2,5,21,4,LearningTask,,,60.0839452551,3,2015_Mar_03_1245,,
Go,2,triangle,gray,0,0,0,5,0,4,4,0,2,6,22,5,LearningTask,,,60.0839452551,3,2015_Mar_03_1245,,
Go,2,triangle,white,0,0,0,5,0,4,4,0,2,7,23,1,LearningTask,,,60.0839452551,3,2015_Mar_03_1245,,
Go,2,triangle,white,0,0,0,5,0,4,4,0,3,0,24,1,LearningTask,,,60.0839452551,3,2015_Mar_03_1245,,
Go,2,triangle,green,0,0,0,5,0,4,4,0,3,1,25,4,LearningTask,,,60.0839452551,3,2015_Mar_03_1245,,
Go,2,triangle,cyan,0,0,0,5,0,4,4,0,3,2,26,6,LearningTask,,,60.0839452551,3,2015_Mar_03_1245,,
Go,2,triangle,blue,0,0,0,5,0,4,4,0,3,3,27,7,LearningTask,,,60.0839452551,3,2015_Mar_03_1245,,
Go,2,triangle,gray,0,0,0,5,0,4,4,0,3,4,28,5,LearningTask,,,60.0839452551,3,2015_Mar_03_1245,,
Go,2,triangle,yellow,0,0,0,5,0,4,4,0,3,5,29,0,LearningTask,,,60.0839452551,3,2015_Mar_03_1245,,
Go,2,triangle,orange,0,0,0,5,0,4,4,0,3,6,30,2,LearningTask,,,60.0839452551,3,2015_Mar_03_1245,,
Go,2,triangle,magenta,0,0,0,5,0,4,4,0,3,7,31,3,LearningTask,,,60.0839452551,3,2015_Mar_03_1245,,
Go,2,triangle,yellow,0,0,0,5,0,4,4,0,4,0,32,0,LearningTask,,,60.0839452551,3,2015_Mar_03_1245,,
Go,2,triangle,green,0,0,0,5,0,4,4,0,4,1,33,4,LearningTask,,,60.0839452551,3,2015_Mar_03_1245,,
Go,2,triangle,orange,0,0,0,5,0,4,4,0,4,2,34,2,LearningTask,,,60.0839452551,3,2015_Mar_03_1245,,
Go,2,triangle,gray,0,0,0,5,0,4,4,0,4,3,35,5,LearningTask,,,60.0839452551,3,2015_Mar_03_1245,,
Go,2,triangle,blue,0,0,0,5,0,4,4,0,4,4,36,7,LearningTask,,,60.0839452551,3,2015_Mar_03_1245,,
Go,2,triangle,magenta,0,0,0,5,0,4,4,0,4,5,37,3,LearningTask,,,60.0839452551,3,2015_Mar_03_1245,,
Go,2,triangle,cyan,0,0,0,5,0,4,4,0,4,6,38,6,LearningTask,,,60.0839452551,3,2015_Mar_03_1245,,
Go,2,triangle,white,0,0,0,5,0,4,4,0,4,7,39,1,LearningTask,,,60.0839452551,3,2015_Mar_03_1245,,
Go,2,triangle,yellow,0,0,0,5,0,4,4,0,5,0,40,0,LearningTask,,,60.0839452551,3,2015_Mar_03_1245,,
Go,2,triangle,magenta,0,0,0,5,0,4,4,0,5,1,41,3,LearningTask,,,60.0839452551,3,2015_Mar_03_1245,,
Go,2,triangle,white,0,0,0,5,0,4,4,0,5,2,42,1,LearningTask,,,60.0839452551,3,2015_Mar_03_1245,,
Go,2,triangle,blue,0,0,0,5,0,4,4,0,5,3,43,7,LearningTask,,,60.0839452551,3,2015_Mar_03_1245,,
Go,2,triangle,gray,0,0,0,5,0,4,4,0,5,4,44,5,LearningTask,,,60.0839452551,3,2015_Mar_03_1245,,
Go,2,triangle,green,0,0,0,5,0,4,4,0,5,5,45,4,LearningTask,,,60.0839452551,3,2015_Mar_03_1245,,
Go,2,triangle,cyan,0,0,0,5,0,4,4,0,5,6,46,6,LearningTask,,,60.0839452551,3,2015_Mar_03_1245,,
Go,2,triangle,orange,0,0,0,5,0,4,4,0,5,7,47,2,LearningTask,,,60.0839452551,3,2015_Mar_03_1245,,
Go,2,triangle,yellow,0,0,0,5,0,4,4,0,6,0,48,0,LearningTask,,,60.0839452551,3,2015_Mar_03_1245,,
Go,2,triangle,cyan,0,0,0,5,0,4,4,0,6,1,49,6,LearningTask,,,60.0839452551,3,2015_Mar_03_1245,,
Go,2,triangle,magenta,0,0,0,5,0,4,4,0,6,2,50,3,LearningTask,,,60.0839452551,3,2015_Mar_03_1245,,
Go,2,triangle,green,0,0,0,5,0,4,4,0,6,3,51,4,LearningTask,,,60.0839452551,3,2015_Mar_03_1245,,
Go,2,triangle,gray,0,0,0,5,0,4,4,0,6,4,52,5,LearningTask,,,60.0839452551,3,2015_Mar_03_1245,,
Go,2,triangle,white,0,0,0,5,0,4,4,0,6,5,53,1,LearningTask,,,60.0839452551,3,2015_Mar_03_1245,,
Go,2,triangle,blue,0,0,0,5,0,4,4,0,6,6,54,7,LearningTask,,,60.0839452551,3,2015_Mar_03_1245,,
Go,2,triangle,orange,0,0,0,5,0,4,4,0,6,7,55,2,LearningTask,,,60.0839452551,3,2015_Mar_03_1245,,
Go,2,triangle,blue,0,0,0,5,0,4,4,0,7,0,56,7,LearningTask,,,60.0839452551,3,2015_Mar_03_1245,,
Go,2,triangle,yellow,0,0,0,5,0,4,4,0,7,1,57,0,LearningTask,,,60.0839452551,3,2015_Mar_03_1245,,
Go,2,triangle,orange,0,0,0,5,0,4,4,0,7,2,58,2,LearningTask,,,60.0839452551,3,2015_Mar_03_1245,,
Go,2,triangle,cyan,0,0,0,5,0,4,4,0,7,3,59,6,LearningTask,,,60.0839452551,3,2015_Mar_03_1245,,
Go,2,triangle,gray,0,0,0,5,0,4,4,0,7,4,60,5,LearningTask,,,60.0839452551,3,2015_Mar_03_1245,,
Go,2,triangle,magenta,0,0,0,5,0,4,4,0,7,5,61,3,LearningTask,,,60.0839452551,3,2015_Mar_03_1245,,
Go,2,triangle,white,0,0,0,5,0,4,4,0,7,6,62,1,LearningTask,,,60.0839452551,3,2015_Mar_03_1245,,
Go,2,triangle,green,0,0,0,5,0,4,4,0,7,7,63,4,LearningTask,,,60.0839452551,3,2015_Mar_03_1245,,
Go,2,triangle,,0,0,0,5,0,4,4,0,,,,,LearningTask,,,60.0839452551,3,2015_Mar_03_1245,,
Go,2,diamond,yellow,0,0,0,5,0,5,5,5,0,0,0,0,LearningTask,,,60.0839452551,3,2015_Mar_03_1245,,
Go,2,diamond,white,0,0,0,5,0,5,5,5,0,1,1,1,LearningTask,,,60.0839452551,3,2015_Mar_03_1245,,
Go,2,diamond,green,0,0,0,5,0,5,5,5,0,2,2,4,LearningTask,,,60.0839452551,3,2015_Mar_03_1245,,
Go,2,diamond,cyan,0,0,0,5,0,5,5,5,0,3,3,6,LearningTask,,,60.0839452551,3,2015_Mar_03_1245,,
Go,2,diamond,magenta,0,0,0,5,0,5,5,5,0,4,4,3,LearningTask,,,60.0839452551,3,2015_Mar_03_1245,,
Go,2,diamond,blue,0,0,0,5,0,5,5,5,0,5,5,7,LearningTask,,,60.0839452551,3,2015_Mar_03_1245,,
Go,2,diamond,orange,0,0,0,5,0,5,5,5,0,6,6,2,LearningTask,,,60.0839452551,3,2015_Mar_03_1245,,
Go,2,diamond,gray,0,0,0,5,0,5,5,5,0,7,7,5,LearningTask,,,60.0839452551,3,2015_Mar_03_1245,,
Go,2,diamond,yellow,0,0,0,5,0,5,5,5,1,0,8,0,LearningTask,,,60.0839452551,3,2015_Mar_03_1245,,
Go,2,diamond,blue,0,0,0,5,0,5,5,5,1,1,9,7,LearningTask,,,60.0839452551,3,2015_Mar_03_1245,,
Go,2,diamond,gray,0,0,0,5,0,5,5,5,1,2,10,5,LearningTask,,,60.0839452551,3,2015_Mar_03_1245,,
Go,2,diamond,orange,0,0,0,5,0,5,5,5,1,3,11,2,LearningTask,,,60.0839452551,3,2015_Mar_03_1245,,
Go,2,diamond,magenta,0,0,0,5,0,5,5,5,1,4,12,3,LearningTask,,,60.0839452551,3,2015_Mar_03_1245,,
Go,2,diamond,green,0,0,0,5,0,5,5,5,1,5,13,4,LearningTask,,,60.0839452551,3,2015_Mar_03_1245,,
Go,2,diamond,cyan,0,0,0,5,0,5,5,5,1,6,14,6,LearningTask,,,60.0839452551,3,2015_Mar_03_1245,,
Go,2,diamond,white,0,0,0,5,0,5,5,5,1,7,15,1,LearningTask,,,60.0839452551,3,2015_Mar_03_1245,,
Go,2,diamond,cyan,0,0,0,5,0,5,5,5,2,0,16,6,LearningTask,,,60.0839452551,3,2015_Mar_03_1245,,
Go,2,diamond,green,0,0,0,5,0,5,5,5,2,1,17,4,LearningTask,,,60.0839452551,3,2015_Mar_03_1245,,
Go,2,diamond,magenta,0,0,0,5,0,5,5,5,2,2,18,3,LearningTask,,,60.0839452551,3,2015_Mar_03_1245,,
Go,2,diamond,blue,0,0,0,5,0,5,5,5,2,3,19,7,LearningTask,,,60.0839452551,3,2015_Mar_03_1245,,
Go,2,diamond,white,0,0,0,5,0,5,5,5,2,4,20,1,LearningTask,,,60.0839452551,3,2015_Mar_03_1245,,
Go,2,diamond,gray,0,0,0,5,0,5,5,5,2,5,21,5,LearningTask,,,60.0839452551,3,2015_Mar_03_1245,,
Go,2,diamond,orange,0,0,0,5,0,5,5,5,2,6,22,2,LearningTask,,,60.0839452551,3,2015_Mar_03_1245,,
Go,2,diamond,yellow,0,0,0,5,0,5,5,5,2,7,23,0,LearningTask,,,60.0839452551,3,2015_Mar_03_1245,,
Go,2,diamond,white,0,0,0,5,0,5,5,5,3,0,24,1,LearningTask,,,60.0839452551,3,2015_Mar_03_1245,,
Go,2,diamond,cyan,0,0,0,5,0,5,5,5,3,1,25,6,LearningTask,,,60.0839452551,3,2015_Mar_03_1245,,
Go,2,diamond,gray,0,0,0,5,0,5,5,5,3,2,26,5,LearningTask,,,60.0839452551,3,2015_Mar_03_1245,,
Go,2,diamond,magenta,0,0,0,5,0,5,5,5,3,3,27,3,LearningTask,,,60.0839452551,3,2015_Mar_03_1245,,
Go,2,diamond,blue,0,0,0,5,0,5,5,5,3,4,28,7,LearningTask,,,60.0839452551,3,2015_Mar_03_1245,,
Go,2,diamond,orange,0,0,0,5,0,5,5,5,3,5,29,2,LearningTask,,,60.0839452551,3,2015_Mar_03_1245,,
Go,2,diamond,yellow,0,0,0,5,0,5,5,5,3,6,30,0,LearningTask,,,60.0839452551,3,2015_Mar_03_1245,,
Go,2,diamond,green,0,0,0,5,0,5,5,5,3,7,31,4,LearningTask,,,60.0839452551,3,2015_Mar_03_1245,,
Go,2,diamond,gray,0,0,0,5,0,5,5,5,4,0,32,5,LearningTask,,,60.0839452551,3,2015_Mar_03_1245,,
Go,2,diamond,cyan,0,0,0,5,0,5,5,5,4,1,33,6,LearningTask,,,60.0839452551,3,2015_Mar_03_1245,,
Go,2,diamond,magenta,0,0,0,5,0,5,5,5,4,2,34,3,LearningTask,,,60.0839452551,3,2015_Mar_03_1245,,
Go,2,diamond,green,0,0,0,5,0,5,5,5,4,3,35,4,LearningTask,,,60.0839452551,3,2015_Mar_03_1245,,
Go,2,diamond,blue,0,0,0,5,0,5,5,5,4,4,36,7,LearningTask,,,60.0839452551,3,2015_Mar_03_1245,,
Go,2,diamond,white,0,0,0,5,0,5,5,5,4,5,37,1,LearningTask,,,60.0839452551,3,2015_Mar_03_1245,,
Go,2,diamond,yellow,0,0,0,5,0,5,5,5,4,6,38,0,LearningTask,,,60.0839452551,3,2015_Mar_03_1245,,
Go,2,diamond,orange,0,0,0,5,0,5,5,5,4,7,39,2,LearningTask,,,60.0839452551,3,2015_Mar_03_1245,,
Go,2,diamond,magenta,0,0,0,5,0,5,5,5,5,0,40,3,LearningTask,,,60.0839452551,3,2015_Mar_03_1245,,
Go,2,diamond,white,0,0,0,5,0,5,5,5,5,1,41,1,LearningTask,,,60.0839452551,3,2015_Mar_03_1245,,
Go,2,diamond,green,0,0,0,5,0,5,5,5,5,2,42,4,LearningTask,,,60.0839452551,3,2015_Mar_03_1245,,
Go,2,diamond,blue,0,0,0,5,0,5,5,5,5,3,43,7,LearningTask,,,60.0839452551,3,2015_Mar_03_1245,,
Go,2,diamond,cyan,0,0,0,5,0,5,5,5,5,4,44,6,LearningTask,,,60.0839452551,3,2015_Mar_03_1245,,
Go,2,diamond,orange,0,0,0,5,0,5,5,5,5,5,45,2,LearningTask,,,60.0839452551,3,2015_Mar_03_1245,,
Go,2,diamond,gray,0,0,0,5,0,5,5,5,5,6,46,5,LearningTask,,,60.0839452551,3,2015_Mar_03_1245,,
Go,2,diamond,yellow,0,0,0,5,0,5,5,5,5,7,47,0,LearningTask,,,60.0839452551,3,2015_Mar_03_1245,,
Go,2,diamond,gray,0,0,0,5,0,5,5,5,6,0,48,5,LearningTask,,,60.0839452551,3,2015_Mar_03_1245,,
Go,2,diamond,white,0,0,0,5,0,5,5,5,6,1,49,1,LearningTask,,,60.0839452551,3,2015_Mar_03_1245,,
Go,2,diamond,blue,0,0,0,5,0,5,5,5,6,2,50,7,LearningTask,,,60.0839452551,3,2015_Mar_03_1245,,
Go,2,diamond,green,0,0,0,5,0,5,5,5,6,3,51,4,LearningTask,,,60.0839452551,3,2015_Mar_03_1245,,
Go,2,diamond,orange,0,0,0,5,0,5,5,5,6,4,52,2,LearningTask,,,60.0839452551,3,2015_Mar_03_1245,,
Go,2,diamond,cyan,0,0,0,5,0,5,5,5,6,5,53,6,LearningTask,,,60.0839452551,3,2015_Mar_03_1245,,
Go,2,diamond,yellow,0,0,0,5,0,5,5,5,6,6,54,0,LearningTask,,,60.0839452551,3,2015_Mar_03_1245,,
Go,2,diamond,magenta,0,0,0,5,0,5,5,5,6,7,55,3,LearningTask,,,60.0839452551,3,2015_Mar_03_1245,,
Go,2,diamond,green,0,0,0,5,0,5,5,5,7,0,56,4,LearningTask,,,60.0839452551,3,2015_Mar_03_1245,,
Go,2,diamond,white,0,0,0,5,0,5,5,5,7,1,57,1,LearningTask,,,60.0839452551,3,2015_Mar_03_1245,,
Go,2,diamond,magenta,0,0,0,5,0,5,5,5,7,2,58,3,LearningTask,,,60.0839452551,3,2015_Mar_03_1245,,
Go,2,diamond,gray,0,0,0,5,0,5,5,5,7,3,59,5,LearningTask,,,60.0839452551,3,2015_Mar_03_1245,,
Go,2,diamond,cyan,0,0,0,5,0,5,5,5,7,4,60,6,LearningTask,,,60.0839452551,3,2015_Mar_03_1245,,
Go,2,diamond,blue,0,0,0,5,0,5,5,5,7,5,61,7,LearningTask,,,60.0839452551,3,2015_Mar_03_1245,,
Go,2,diamond,orange,0,0,0,5,0,5,5,5,7,6,62,2,LearningTask,,,60.0839452551,3,2015_Mar_03_1245,,
Go,2,diamond,yellow,0,0,0,5,0,5,5,5,7,7,63,0,LearningTask,,,60.0839452551,3,2015_Mar_03_1245,,
Go,2,diamond,,0,0,0,5,0,5,5,5,,,,,LearningTask,,,60.0839452551,3,2015_Mar_03_1245,,
Go,2,hexagon,green,0,0,0,5,0,6,6,4,0,0,0,4,LearningTask,,,60.0839452551,3,2015_Mar_03_1245,,
Go,2,hexagon,white,0,0,0,5,0,6,6,4,0,1,1,1,LearningTask,,,60.0839452551,3,2015_Mar_03_1245,,
Go,2,hexagon,gray,0,0,0,5,0,6,6,4,0,2,2,5,LearningTask,,,60.0839452551,3,2015_Mar_03_1245,,
Go,2,hexagon,blue,0,0,0,5,0,6,6,4,0,3,3,7,LearningTask,,,60.0839452551,3,2015_Mar_03_1245,,
Go,2,hexagon,magenta,0,0,0,5,0,6,6,4,0,4,4,3,LearningTask,,,60.0839452551,3,2015_Mar_03_1245,,
Go,2,hexagon,orange,0,0,0,5,0,6,6,4,0,5,5,2,LearningTask,,,60.0839452551,3,2015_Mar_03_1245,,
Go,2,hexagon,cyan,0,0,0,5,0,6,6,4,0,6,6,6,LearningTask,,,60.0839452551,3,2015_Mar_03_1245,,
Go,2,hexagon,yellow,0,0,0,5,0,6,6,4,0,7,7,0,LearningTask,,,60.0839452551,3,2015_Mar_03_1245,,
Go,2,hexagon,green,0,0,0,5,0,6,6,4,1,0,8,4,LearningTask,,,60.0839452551,3,2015_Mar_03_1245,,
Go,2,hexagon,orange,0,0,0,5,0,6,6,4,1,1,9,2,LearningTask,,,60.0839452551,3,2015_Mar_03_1245,,
Go,2,hexagon,yellow,0,0,0,5,0,6,6,4,1,2,10,0,LearningTask,,,60.0839452551,3,2015_Mar_03_1245,,
Go,2,hexagon,white,0,0,0,5,0,6,6,4,1,3,11,1,LearningTask,,,60.0839452551,3,2015_Mar_03_1245,,
Go,2,hexagon,gray,0,0,0,5,0,6,6,4,1,4,12,5,LearningTask,,,60.0839452551,3,2015_Mar_03_1245,,
Go,2,hexagon,cyan,0,0,0,5,0,6,6,4,1,5,13,6,LearningTask,,,60.0839452551,3,2015_Mar_03_1245,,
Go,2,hexagon,magenta,0,0,0,5,0,6,6,4,1,6,14,3,LearningTask,,,60.0839452551,3,2015_Mar_03_1245,,
Go,2,hexagon,blue,0,0,0,5,0,6,6,4,1,7,15,7,LearningTask,,,60.0839452551,3,2015_Mar_03_1245,,
Go,2,hexagon,magenta,0,0,0,5,0,6,6,4,2,0,16,3,LearningTask,,,60.0839452551,3,2015_Mar_03_1245,,
Go,2,hexagon,gray,0,0,0,5,0,6,6,4,2,1,17,5,LearningTask,,,60.0839452551,3,2015_Mar_03_1245,,
Go,2,hexagon,cyan,0,0,0,5,0,6,6,4,2,2,18,6,LearningTask,,,60.0839452551,3,2015_Mar_03_1245,,
Go,2,hexagon,blue,0,0,0,5,0,6,6,4,2,3,19,7,LearningTask,,,60.0839452551,3,2015_Mar_03_1245,,
Go,2,hexagon,yellow,0,0,0,5,0,6,6,4,2,4,20,0,LearningTask,,,60.0839452551,3,2015_Mar_03_1245,,
Go,2,hexagon,white,0,0,0,5,0,6,6,4,2,5,21,1,LearningTask,,,60.0839452551,3,2015_Mar_03_1245,,
Go,2,hexagon,orange,0,0,0,5,0,6,6,4,2,6,22,2,LearningTask,,,60.0839452551,3,2015_Mar_03_1245,,
Go,2,hexagon,green,0,0,0,5,0,6,6,4,2,7,23,4,LearningTask,,,60.0839452551,3,2015_Mar_03_1245,,
Go,2,hexagon,yellow,0,0,0,5,0,6,6,4,3,0,24,0,LearningTask,,,60.0839452551,3,2015_Mar_03_1245,,
Go,2,hexagon,magenta,0,0,0,5,0,6,6,4,3,1,25,3,LearningTask,,,60.0839452551,3,2015_Mar_03_1245,,
Go,2,hexagon,orange,0,0,0,5,0,6,6,4,3,2,26,2,LearningTask,,,60.0839452551,3,2015_Mar_03_1245,,
Go,2,hexagon,blue,0,0,0,5,0,6,6,4,3,3,27,7,LearningTask,,,60.0839452551,3,2015_Mar_03_1245,,
Go,2,hexagon,cyan,0,0,0,5,0,6,6,4,3,4,28,6,LearningTask,,,60.0839452551,3,2015_Mar_03_1245,,
Go,2,hexagon,green,0,0,0,5,0,6,6,4,3,5,29,4,LearningTask,,,60.0839452551,3,2015_Mar_03_1245,,
Go,2,hexagon,white,0,0,0,5,0,6,6,4,3,6,30,1,LearningTask,,,60.0839452551,3,2015_Mar_03_1245,,
Go,2,hexagon,gray,0,0,0,5,0,6,6,4,3,7,31,5,LearningTask,,,60.0839452551,3,2015_Mar_03_1245,,
Go,2,hexagon,gray,0,0,0,5,0,6,6,4,4,0,32,5,LearningTask,,,60.0839452551,3,2015_Mar_03_1245,,
Go,2,hexagon,white,0,0,0,5,0,6,6,4,4,1,33,1,LearningTask,,,60.0839452551,3,2015_Mar_03_1245,,
Go,2,hexagon,orange,0,0,0,5,0,6,6,4,4,2,34,2,LearningTask,,,60.0839452551,3,2015_Mar_03_1245,,
Go,2,hexagon,green,0,0,0,5,0,6,6,4,4,3,35,4,LearningTask,,,60.0839452551,3,2015_Mar_03_1245,,
Go,2,hexagon,blue,0,0,0,5,0,6,6,4,4,4,36,7,LearningTask,,,60.0839452551,3,2015_Mar_03_1245,,
Go,2,hexagon,magenta,0,0,0,5,0,6,6,4,4,5,37,3,LearningTask,,,60.0839452551,3,2015_Mar_03_1245,,
Go,2,hexagon,yellow,0,0,0,5,0,6,6,4,4,6,38,0,LearningTask,,,60.0839452551,3,2015_Mar_03_1245,,
Go,2,hexagon,cyan,0,0,0,5,0,6,6,4,4,7,39,6,LearningTask,,,60.0839452551,3,2015_Mar_03_1245,,
Go,2,hexagon,gray,0,0,0,5,0,6,6,4,5,0,40,5,LearningTask,,,60.0839452551,3,2015_Mar_03_1245,,
Go,2,hexagon,orange,0,0,0,5,0,6,6,4,5,1,41,2,LearningTask,,,60.0839452551,3,2015_Mar_03_1245,,
Go,2,hexagon,white,0,0,0,5,0,6,6,4,5,2,42,1,LearningTask,,,60.0839452551,3,2015_Mar_03_1245,,
Go,2,hexagon,yellow,0,0,0,5,0,6,6,4,5,3,43,0,LearningTask,,,60.0839452551,3,2015_Mar_03_1245,,
Go,2,hexagon,blue,0,0,0,5,0,6,6,4,5,4,44,7,LearningTask,,,60.0839452551,3,2015_Mar_03_1245,,
Go,2,hexagon,magenta,0,0,0,5,0,6,6,4,5,5,45,3,LearningTask,,,60.0839452551,3,2015_Mar_03_1245,,
Go,2,hexagon,green,0,0,0,5,0,6,6,4,5,6,46,4,LearningTask,,,60.0839452551,3,2015_Mar_03_1245,,
Go,2,hexagon,cyan,0,0,0,5,0,6,6,4,5,7,47,6,LearningTask,,,60.0839452551,3,2015_Mar_03_1245,,
Go,2,hexagon,gray,0,0,0,5,0,6,6,4,6,0,48,5,LearningTask,,,60.0839452551,3,2015_Mar_03_1245,,
Go,2,hexagon,magenta,0,0,0,5,0,6,6,4,6,1,49,3,LearningTask,,,60.0839452551,3,2015_Mar_03_1245,,
Go,2,hexagon,green,0,0,0,5,0,6,6,4,6,2,50,4,LearningTask,,,60.0839452551,3,2015_Mar_03_1245,,
Go,2,hexagon,yellow,0,0,0,5,0,6,6,4,6,3,51,0,LearningTask,,,60.0839452551,3,2015_Mar_03_1245,,
Go,2,hexagon,blue,0,0,0,5,0,6,6,4,6,4,52,7,LearningTask,,,60.0839452551,3,2015_Mar_03_1245,,
Go,2,hexagon,orange,0,0,0,5,0,6,6,4,6,5,53,2,LearningTask,,,60.0839452551,3,2015_Mar_03_1245,,
Go,2,hexagon,white,0,0,0,5,0,6,6,4,6,6,54,1,LearningTask,,,60.0839452551,3,2015_Mar_03_1245,,
Go,2,hexagon,cyan,0,0,0,5,0,6,6,4,6,7,55,6,LearningTask,,,60.0839452551,3,2015_Mar_03_1245,,
Go,2,hexagon,white,0,0,0,5,0,6,6,4,7,0,56,1,LearningTask,,,60.0839452551,3,2015_Mar_03_1245,,
Go,2,hexagon,blue,0,0,0,5,0,6,6,4,7,1,57,7,LearningTask,,,60.0839452551,3,2015_Mar_03_1245,,
Go,2,hexagon,cyan,0,0,0,5,0,6,6,4,7,2,58,6,LearningTask,,,60.0839452551,3,2015_Mar_03_1245,,
Go,2,hexagon,yellow,0,0,0,5,0,6,6,4,7,3,59,0,LearningTask,,,60.0839452551,3,2015_Mar_03_1245,,
Go,2,hexagon,gray,0,0,0,5,0,6,6,4,7,4,60,5,LearningTask,,,60.0839452551,3,2015_Mar_03_1245,,
Go,2,hexagon,magenta,0,0,0,5,0,6,6,4,7,5,61,3,LearningTask,,,60.0839452551,3,2015_Mar_03_1245,,
Go,2,hexagon,orange,0,0,0,5,0,6,6,4,7,6,62,2,LearningTask,,,60.0839452551,3,2015_Mar_03_1245,,
Go,2,hexagon,green,0,0,0,5,0,6,6,4,7,7,63,4,LearningTask,,,60.0839452551,3,2015_Mar_03_1245,,
Go,2,hexagon,,0,0,0,5,0,6,6,4,,,,,LearningTask,,,60.0839452551,3,2015_Mar_03_1245,,
Go,2,square,gray,0,0,0,5,0,7,7,1,0,0,0,5,LearningTask,,,60.0839452551,3,2015_Mar_03_1245,,
Go,2,square,blue,0,0,0,5,0,7,7,1,0,1,1,7,LearningTask,,,60.0839452551,3,2015_Mar_03_1245,,
Go,2,square,orange,0,0,0,5,0,7,7,1,0,2,2,2,LearningTask,,,60.0839452551,3,2015_Mar_03_1245,,
Go,2,square,yellow,0,0,0,5,0,7,7,1,0,3,3,0,LearningTask,,,60.0839452551,3,2015_Mar_03_1245,,
Go,2,square,white,0,0,0,5,0,7,7,1,0,4,4,1,LearningTask,,,60.0839452551,3,2015_Mar_03_1245,,
Go,2,square,cyan,0,0,0,5,0,7,7,1,0,5,5,6,LearningTask,,,60.0839452551,3,2015_Mar_03_1245,,
Go,2,square,green,0,0,0,5,0,7,7,1,0,6,6,4,LearningTask,,,60.0839452551,3,2015_Mar_03_1245,,
Go,2,square,magenta,0,0,0,5,0,7,7,1,0,7,7,3,LearningTask,,,60.0839452551,3,2015_Mar_03_1245,,
Go,2,square,yellow,0,0,0,5,0,7,7,1,1,0,8,0,LearningTask,,,60.0839452551,3,2015_Mar_03_1245,,
Go,2,square,blue,0,0,0,5,0,7,7,1,1,1,9,7,LearningTask,,,60.0839452551,3,2015_Mar_03_1245,,
Go,2,square,gray,0,0,0,5,0,7,7,1,1,2,10,5,LearningTask,,,60.0839452551,3,2015_Mar_03_1245,,
Go,2,square,orange,0,0,0,5,0,7,7,1,1,3,11,2,LearningTask,,,60.0839452551,3,2015_Mar_03_1245,,
Go,2,square,green,0,0,0,5,0,7,7,1,1,4,12,4,LearningTask,,,60.0839452551,3,2015_Mar_03_1245,,
Go,2,square,white,0,0,0,5,0,7,7,1,1,5,13,1,LearningTask,,,60.0839452551,3,2015_Mar_03_1245,,
Go,2,square,magenta,0,0,0,5,0,7,7,1,1,6,14,3,LearningTask,,,60.0839452551,3,2015_Mar_03_1245,,
Go,2,square,cyan,0,0,0,5,0,7,7,1,1,7,15,6,LearningTask,,,60.0839452551,3,2015_Mar_03_1245,,
Go,2,square,cyan,0,0,0,5,0,7,7,1,2,0,16,6,LearningTask,,,60.0839452551,3,2015_Mar_03_1245,,
Go,2,square,gray,0,0,0,5,0,7,7,1,2,1,17,5,LearningTask,,,60.0839452551,3,2015_Mar_03_1245,,
Go,2,square,yellow,0,0,0,5,0,7,7,1,2,2,18,0,LearningTask,,,60.0839452551,3,2015_Mar_03_1245,,
Go,2,square,orange,0,0,0,5,0,7,7,1,2,3,19,2,LearningTask,,,60.0839452551,3,2015_Mar_03_1245,,
Go,2,square,white,0,0,0,5,0,7,7,1,2,4,20,1,LearningTask,,,60.0839452551,3,2015_Mar_03_1245,,
Go,2,square,blue,0,0,0,5,0,7,7,1,2,5,21,7,LearningTask,,,60.0839452551,3,2015_Mar_03_1245,,
Go,2,square,green,0,0,0,5,0,7,7,1,2,6,22,4,LearningTask,,,60.0839452551,3,2015_Mar_03_1245,,
Go,2,square,magenta,0,0,0,5,0,7,7,1,2,7,23,3,LearningTask,,,60.0839452551,3,2015_Mar_03_1245,,
Go,2,square,blue,0,0,0,5,0,7,7,1,3,0,24,7,LearningTask,,,60.0839452551,3,2015_Mar_03_1245,,
Go,2,square,white,0,0,0,5,0,7,7,1,3,1,25,1,LearningTask,,,60.0839452551,3,2015_Mar_03_1245,,
Go,2,square,yellow,0,0,0,5,0,7,7,1,3,2,26,0,LearningTask,,,60.0839452551,3,2015_Mar_03_1245,,
Go,2,square,magenta,0,0,0,5,0,7,7,1,3,3,27,3,LearningTask,,,60.0839452551,3,2015_Mar_03_1245,,
Go,2,square,green,0,0,0,5,0,7,7,1,3,4,28,4,LearningTask,,,60.0839452551,3,2015_Mar_03_1245,,
Go,2,square,gray,0,0,0,5,0,7,7,1,3,5,29,5,LearningTask,,,60.0839452551,3,2015_Mar_03_1245,,
Go,2,square,cyan,0,0,0,5,0,7,7,1,3,6,30,6,LearningTask,,,60.0839452551,3,2015_Mar_03_1245,,
Go,2,square,orange,0,0,0,5,0,7,7,1,3,7,31,2,LearningTask,,,60.0839452551,3,2015_Mar_03_1245,,
Go,2,square,yellow,0,0,0,5,0,7,7,1,4,0,32,0,LearningTask,,,60.0839452551,3,2015_Mar_03_1245,,
Go,2,square,cyan,0,0,0,5,0,7,7,1,4,1,33,6,LearningTask,,,60.0839452551,3,2015_Mar_03_1245,,
Go,2,square,magenta,0,0,0,5,0,7,7,1,4,2,34,3,LearningTask,,,60.0839452551,3,2015_Mar_03_1245,,
Go,2,square,green,0,0,0,5,0,7,7,1,4,3,35,4,LearningTask,,,60.0839452551,3,2015_Mar_03_1245,,
Go,2,square,white,0,0,0,5,0,7,7,1,4,4,36,1,LearningTask,,,60.0839452551,3,2015_Mar_03_1245,,
Go,2,square,orange,0,0,0,5,0,7,7,1,4,5,37,2,LearningTask,,,60.0839452551,3,2015_Mar_03_1245,,
Go,2,square,gray,0,0,0,5,0,7,7,1,4,6,38,5,LearningTask,,,60.0839452551,3,2015_Mar_03_1245,,
Go,2,square,blue,0,0,0,5,0,7,7,1,4,7,39,7,LearningTask,,,60.0839452551,3,2015_Mar_03_1245,,
Go,2,square,blue,0,0,0,5,0,7,7,1,5,0,40,7,LearningTask,,,60.0839452551,3,2015_Mar_03_1245,,
Go,2,square,orange,0,0,0,5,0,7,7,1,5,1,41,2,LearningTask,,,60.0839452551,3,2015_Mar_03_1245,,
Go,2,square,yellow,0,0,0,5,0,7,7,1,5,2,42,0,LearningTask,,,60.0839452551,3,2015_Mar_03_1245,,
Go,2,square,magenta,0,0,0,5,0,7,7,1,5,3,43,3,LearningTask,,,60.0839452551,3,2015_Mar_03_1245,,
Go,2,square,green,0,0,0,5,0,7,7,1,5,4,44,4,LearningTask,,,60.0839452551,3,2015_Mar_03_1245,,
Go,2,square,gray,0,0,0,5,0,7,7,1,5,5,45,5,LearningTask,,,60.0839452551,3,2015_Mar_03_1245,,
Go,2,square,white,0,0,0,5,0,7,7,1,5,6,46,1,LearningTask,,,60.0839452551,3,2015_Mar_03_1245,,
Go,2,square,cyan,0,0,0,5,0,7,7,1,5,7,47,6,LearningTask,,,60.0839452551,3,2015_Mar_03_1245,,
Go,2,square,gray,0,0,0,5,0,7,7,1,6,0,48,5,LearningTask,,,60.0839452551,3,2015_Mar_03_1245,,
Go,2,square,cyan,0,0,0,5,0,7,7,1,6,1,49,6,LearningTask,,,60.0839452551,3,2015_Mar_03_1245,,
Go,2,square,yellow,0,0,0,5,0,7,7,1,6,2,50,0,LearningTask,,,60.0839452551,3,2015_Mar_03_1245,,
Go,2,square,orange,0,0,0,5,0,7,7,1,6,3,51,2,LearningTask,,,60.0839452551,3,2015_Mar_03_1245,,
Go,2,square,white,0,0,0,5,0,7,7,1,6,4,52,1,LearningTask,,,60.0839452551,3,2015_Mar_03_1245,,
Go,2,square,blue,0,0,0,5,0,7,7,1,6,5,53,7,LearningTask,,,60.0839452551,3,2015_Mar_03_1245,,
Go,2,square,magenta,0,0,0,5,0,7,7,1,6,6,54,3,LearningTask,,,60.0839452551,3,2015_Mar_03_1245,,
Go,2,square,green,0,0,0,5,0,7,7,1,6,7,55,4,LearningTask,,,60.0839452551,3,2015_Mar_03_1245,,
Go,2,square,orange,0,0,0,5,0,7,7,1,7,0,56,2,LearningTask,,,60.0839452551,3,2015_Mar_03_1245,,
Go,2,square,gray,0,0,0,5,0,7,7,1,7,1,57,5,LearningTask,,,60.0839452551,3,2015_Mar_03_1245,,
Go,2,square,magenta,0,0,0,5,0,7,7,1,7,2,58,3,LearningTask,,,60.0839452551,3,2015_Mar_03_1245,,
Go,2,square,cyan,0,0,0,5,0,7,7,1,7,3,59,6,LearningTask,,,60.0839452551,3,2015_Mar_03_1245,,
Go,2,square,green,0,0,0,5,0,7,7,1,7,4,60,4,LearningTask,,,60.0839452551,3,2015_Mar_03_1245,,
Go,2,square,white,0,0,0,5,0,7,7,1,7,5,61,1,LearningTask,,,60.0839452551,3,2015_Mar_03_1245,,
Go,2,square,yellow,0,0,0,5,0,7,7,1,7,6,62,0,LearningTask,,,60.0839452551,3,2015_Mar_03_1245,,
Go,2,square,blue,0,0,0,5,0,7,7,1,7,7,63,7,LearningTask,,,60.0839452551,3,2015_Mar_03_1245,,
Go,2,square,,0,0,0,5,0,7,7,1,,,,,LearningTask,,,60.0839452551,3,2015_Mar_03_1245,,
Go,2,square,blue,0,0,0,5,1,0,8,1,0,0,0,7,LearningTask,,,60.0839452551,3,2015_Mar_03_1245,,
Go,2,square,yellow,0,0,0,5,1,0,8,1,0,1,1,0,LearningTask,,,60.0839452551,3,2015_Mar_03_1245,,
Go,2,square,green,0,0,0,5,1,0,8,1,0,2,2,4,LearningTask,,,60.0839452551,3,2015_Mar_03_1245,,
Go,2,square,gray,0,0,0,5,1,0,8,1,0,3,3,5,LearningTask,,,60.0839452551,3,2015_Mar_03_1245,,
Go,2,square,orange,0,0,0,5,1,0,8,1,0,4,4,2,LearningTask,,,60.0839452551,3,2015_Mar_03_1245,,
Go,2,square,magenta,0,0,0,5,1,0,8,1,0,5,5,3,LearningTask,,,60.0839452551,3,2015_Mar_03_1245,,
Go,2,square,white,0,0,0,5,1,0,8,1,0,6,6,1,LearningTask,,,60.0839452551,3,2015_Mar_03_1245,,
Go,2,square,cyan,0,0,0,5,1,0,8,1,0,7,7,6,LearningTask,,,60.0839452551,3,2015_Mar_03_1245,,
Go,2,square,cyan,0,0,0,5,1,0,8,1,1,0,8,6,LearningTask,,,60.0839452551,3,2015_Mar_03_1245,,
Go,2,square,yellow,0,0,0,5,1,0,8,1,1,1,9,0,LearningTask,,,60.0839452551,3,2015_Mar_03_1245,,
Go,2,square,orange,0,0,0,5,1,0,8,1,1,2,10,2,LearningTask,,,60.0839452551,3,2015_Mar_03_1245,,
Go,2,square,green,0,0,0,5,1,0,8,1,1,3,11,4,LearningTask,,,60.0839452551,3,2015_Mar_03_1245,,
Go,2,square,blue,0,0,0,5,1,0,8,1,1,4,12,7,LearningTask,,,60.0839452551,3,2015_Mar_03_1245,,
Go,2,square,white,0,0,0,5,1,0,8,1,1,5,13,1,LearningTask,,,60.0839452551,3,2015_Mar_03_1245,,
Go,2,square,gray,0,0,0,5,1,0,8,1,1,6,14,5,LearningTask,,,60.0839452551,3,2015_Mar_03_1245,,
Go,2,square,magenta,0,0,0,5,1,0,8,1,1,7,15,3,LearningTask,,,60.0839452551,3,2015_Mar_03_1245,,
Go,2,square,gray,0,0,0,5,1,0,8,1,2,0,16,5,LearningTask,,,60.0839452551,3,2015_Mar_03_1245,,
Go,2,square,white,0,0,0,5,1,0,8,1,2,1,17,1,LearningTask,,,60.0839452551,3,2015_Mar_03_1245,,
Go,2,square,green,0,0,0,5,1,0,8,1,2,2,18,4,LearningTask,,,60.0839452551,3,2015_Mar_03_1245,,
Go,2,square,magenta,0,0,0,5,1,0,8,1,2,3,19,3,LearningTask,,,60.0839452551,3,2015_Mar_03_1245,,
Go,2,square,orange,0,0,0,5,1,0,8,1,2,4,20,2,LearningTask,,,60.0839452551,3,2015_Mar_03_1245,,
Go,2,square,blue,0,0,0,5,1,0,8,1,2,5,21,7,LearningTask,,,60.0839452551,3,2015_Mar_03_1245,,
Go,2,square,yellow,0,0,0,5,1,0,8,1,2,6,22,0,LearningTask,,,60.0839452551,3,2015_Mar_03_1245,,
Go,2,square,cyan,0,0,0,5,1,0,8,1,2,7,23,6,LearningTask,,,60.0839452551,3,2015_Mar_03_1245,,
Go,2,square,gray,0,0,0,5,1,0,8,1,3,0,24,5,LearningTask,,,60.0839452551,3,2015_Mar_03_1245,,
Go,2,square,green,0,0,0,5,1,0,8,1,3,1,25,4,LearningTask,,,60.0839452551,3,2015_Mar_03_1245,,
Go,2,square,cyan,0,0,0,5,1,0,8,1,3,2,26,6,LearningTask,,,60.0839452551,3,2015_Mar_03_1245,,
Go,2,square,orange,0,0,0,5,1,0,8,1,3,3,27,2,LearningTask,,,60.0839452551,3,2015_Mar_03_1245,,
Go,2,square,blue,0,0,0,5,1,0,8,1,3,4,28,7,LearningTask,,,60.0839452551,3,2015_Mar_03_1245,,
Go,2,square,white,0,0,0,5,1,0,8,1,3,5,29,1,LearningTask,,,60.0839452551,3,2015_Mar_03_1245,,
Go,2,square,magenta,0,0,0,5,1,0,8,1,3,6,30,3,LearningTask,,,60.0839452551,3,2015_Mar_03_1245,,
Go,2,square,yellow,0,0,0,5,1,0,8,1,3,7,31,0,LearningTask,,,60.0839452551,3,2015_Mar_03_1245,,
Go,2,square,white,0,0,0,5,1,0,8,1,4,0,32,1,LearningTask,,,60.0839452551,3,2015_Mar_03_1245,,
Go,2,square,magenta,0,0,0,5,1,0,8,1,4,1,33,3,LearningTask,,,60.0839452551,3,2015_Mar_03_1245,,
Go,2,square,yellow,0,0,0,5,1,0,8,1,4,2,34,0,LearningTask,,,60.0839452551,3,2015_Mar_03_1245,,
Go,2,square,gray,0,0,0,5,1,0,8,1,4,3,35,5,LearningTask,,,60.0839452551,3,2015_Mar_03_1245,,
Go,2,square,cyan,0,0,0,5,1,0,8,1,4,4,36,6,LearningTask,,,60.0839452551,3,2015_Mar_03_1245,,
Go,2,square,blue,0,0,0,5,1,0,8,1,4,5,37,7,LearningTask,,,60.0839452551,3,2015_Mar_03_1245,,
Go,2,square,orange,0,0,0,5,1,0,8,1,4,6,38,2,LearningTask,,,60.0839452551,3,2015_Mar_03_1245,,
Go,2,square,green,0,0,0,5,1,0,8,1,4,7,39,4,LearningTask,,,60.0839452551,3,2015_Mar_03_1245,,
Go,2,square,green,0,0,0,5,1,0,8,1,5,0,40,4,LearningTask,,,60.0839452551,3,2015_Mar_03_1245,,
Go,2,square,blue,0,0,0,5,1,0,8,1,5,1,41,7,LearningTask,,,60.0839452551,3,2015_Mar_03_1245,,
Go,2,square,gray,0,0,0,5,1,0,8,1,5,2,42,5,LearningTask,,,60.0839452551,3,2015_Mar_03_1245,,
Go,2,square,white,0,0,0,5,1,0,8,1,5,3,43,1,LearningTask,,,60.0839452551,3,2015_Mar_03_1245,,
Go,2,square,orange,0,0,0,5,1,0,8,1,5,4,44,2,LearningTask,,,60.0839452551,3,2015_Mar_03_1245,,
Go,2,square,yellow,0,0,0,5,1,0,8,1,5,5,45,0,LearningTask,,,60.0839452551,3,2015_Mar_03_1245,,
Go,2,square,magenta,0,0,0,5,1,0,8,1,5,6,46,3,LearningTask,,,60.0839452551,3,2015_Mar_03_1245,,
Go,2,square,cyan,0,0,0,5,1,0,8,1,5,7,47,6,LearningTask,,,60.0839452551,3,2015_Mar_03_1245,,
Go,2,square,blue,0,0,0,5,1,0,8,1,6,0,48,7,LearningTask,,,60.0839452551,3,2015_Mar_03_1245,,
Go,2,square,white,0,0,0,5,1,0,8,1,6,1,49,1,LearningTask,,,60.0839452551,3,2015_Mar_03_1245,,
Go,2,square,orange,0,0,0,5,1,0,8,1,6,2,50,2,LearningTask,,,60.0839452551,3,2015_Mar_03_1245,,
Go,2,square,green,0,0,0,5,1,0,8,1,6,3,51,4,LearningTask,,,60.0839452551,3,2015_Mar_03_1245,,
Go,2,square,yellow,0,0,0,5,1,0,8,1,6,4,52,0,LearningTask,,,60.0839452551,3,2015_Mar_03_1245,,
Go,2,square,magenta,0,0,0,5,1,0,8,1,6,5,53,3,LearningTask,,,60.0839452551,3,2015_Mar_03_1245,,
Go,2,square,cyan,0,0,0,5,1,0,8,1,6,6,54,6,LearningTask,,,60.0839452551,3,2015_Mar_03_1245,,
Go,2,square,gray,0,0,0,5,1,0,8,1,6,7,55,5,LearningTask,,,60.0839452551,3,2015_Mar_03_1245,,
Go,2,square,green,0,0,0,5,1,0,8,1,7,0,56,4,LearningTask,,,60.0839452551,3,2015_Mar_03_1245,,
Go,2,square,blue,0,0,0,5,1,0,8,1,7,1,57,7,LearningTask,,,60.0839452551,3,2015_Mar_03_1245,,
Go,2,square,gray,0,0,0,5,1,0,8,1,7,2,58,5,LearningTask,,,60.0839452551,3,2015_Mar_03_1245,,
Go,2,square,yellow,0,0,0,5,1,0,8,1,7,3,59,0,LearningTask,,,60.0839452551,3,2015_Mar_03_1245,,
Go,2,square,magenta,0,0,0,5,1,0,8,1,7,4,60,3,LearningTask,,,60.0839452551,3,2015_Mar_03_1245,,
Go,2,square,orange,0,0,0,5,1,0,8,1,7,5,61,2,LearningTask,,,60.0839452551,3,2015_Mar_03_1245,,
Go,2,square,white,0,0,0,5,1,0,8,1,7,6,62,1,LearningTask,,,60.0839452551,3,2015_Mar_03_1245,,
Go,2,square,cyan,0,0,0,5,1,0,8,1,7,7,63,6,LearningTask,,,60.0839452551,3,2015_Mar_03_1245,,
Go,2,square,,0,0,0,5,1,0,8,1,,,,,LearningTask,,,60.0839452551,3,2015_Mar_03_1245,,
Go,2,circle,magenta,0,0,0,5,1,1,9,7,0,0,0,3,LearningTask,,,60.0839452551,3,2015_Mar_03_1245,,
Go,2,circle,orange,0,0,0,5,1,1,9,7,0,1,1,2,LearningTask,,,60.0839452551,3,2015_Mar_03_1245,,
Go,2,circle,yellow,0,0,0,5,1,1,9,7,0,2,2,0,LearningTask,,,60.0839452551,3,2015_Mar_03_1245,,
Go,2,circle,cyan,0,0,0,5,1,1,9,7,0,3,3,6,LearningTask,,,60.0839452551,3,2015_Mar_03_1245,,
Go,2,circle,gray,0,0,0,5,1,1,9,7,0,4,4,5,LearningTask,,,60.0839452551,3,2015_Mar_03_1245,,
Go,2,circle,blue,0,0,0,5,1,1,9,7,0,5,5,7,LearningTask,,,60.0839452551,3,2015_Mar_03_1245,,
Go,2,circle,white,0,0,0,5,1,1,9,7,0,6,6,1,LearningTask,,,60.0839452551,3,2015_Mar_03_1245,,
Go,2,circle,green,0,0,0,5,1,1,9,7,0,7,7,4,LearningTask,,,60.0839452551,3,2015_Mar_03_1245,,
Go,2,circle,gray,0,0,0,5,1,1,9,7,1,0,8,5,LearningTask,,,60.0839452551,3,2015_Mar_03_1245,,
Go,2,circle,cyan,0,0,0,5,1,1,9,7,1,1,9,6,LearningTask,,,60.0839452551,3,2015_Mar_03_1245,,
Go,2,circle,yellow,0,0,0,5,1,1,9,7,1,2,10,0,LearningTask,,,60.0839452551,3,2015_Mar_03_1245,,
Go,2,circle,orange,0,0,0,5,1,1,9,7,1,3,11,2,LearningTask,,,60.0839452551,3,2015_Mar_03_1245,,
Go,2,circle,green,0,0,0,5,1,1,9,7,1,4,12,4,LearningTask,,,60.0839452551,3,2015_Mar_03_1245,,
Go,2,circle,magenta,0,0,0,5,1,1,9,7,1,5,13,3,LearningTask,,,60.0839452551,3,2015_Mar_03_1245,,
Go,2,circle,blue,0,0,0,5,1,1,9,7,1,6,14,7,LearningTask,,,60.0839452551,3,2015_Mar_03_1245,,
Go,2,circle,white,0,0,0,5,1,1,9,7,1,7,15,1,LearningTask,,,60.0839452551,3,2015_Mar_03_1245,,
Go,2,circle,green,0,0,0,5,1,1,9,7,2,0,16,4,LearningTask,,,60.0839452551,3,2015_Mar_03_1245,,
Go,2,circle,gray,0,0,0,5,1,1,9,7,2,1,17,5,LearningTask,,,60.0839452551,3,2015_Mar_03_1245,,
Go,2,circle,orange,0,0,0,5,1,1,9,7,2,2,18,2,LearningTask,,,60.0839452551,3,2015_Mar_03_1245,,
Go,2,circle,yellow,0,0,0,5,1,1,9,7,2,3,19,0,LearningTask,,,60.0839452551,3,2015_Mar_03_1245,,
Go,2,circle,magenta,0,0,0,5,1,1,9,7,2,4,20,3,LearningTask,,,60.0839452551,3,2015_Mar_03_1245,,
Go,2,circle,white,0,0,0,5,1,1,9,7,2,5,21,1,LearningTask,,,60.0839452551,3,2015_Mar_03_1245,,
Go,2,circle,blue,0,0,0,5,1,1,9,7,2,6,22,7,LearningTask,,,60.0839452551,3,2015_Mar_03_1245,,
Go,2,circle,cyan,0,0,0,5,1,1,9,7,2,7,23,6,LearningTask,,,60.0839452551,3,2015_Mar_03_1245,,
Go,2,circle,cyan,0,0,0,5,1,1,9,7,3,0,24,6,LearningTask,,,60.0839452551,3,2015_Mar_03_1245,,
Go,2,circle,yellow,0,0,0,5,1,1,9,7,3,1,25,0,LearningTask,,,60.0839452551,3,2015_Mar_03_1245,,
Go,2,circle,white,0,0,0,5,1,1,9,7,3,2,26,1,LearningTask,,,60.0839452551,3,2015_Mar_03_1245,,
Go,2,circle,blue,0,0,0,5,1,1,9,7,3,3,27,7,LearningTask,,,60.0839452551,3,2015_Mar_03_1245,,
Go,2,circle,green,0,0,0,5,1,1,9,7,3,4,28,4,LearningTask,,,60.0839452551,3,2015_Mar_03_1245,,
Go,2,circle,gray,0,0,0,5,1,1,9,7,3,5,29,5,LearningTask,,,60.0839452551,3,2015_Mar_03_1245,,
Go,2,circle,magenta,0,0,0,5,1,1,9,7,3,6,30,3,LearningTask,,,60.0839452551,3,2015_Mar_03_1245,,
Go,2,circle,orange,0,0,0,5,1,1,9,7,3,7,31,2,LearningTask,,,60.0839452551,3,2015_Mar_03_1245,,
Go,2,circle,cyan,0,0,0,5,1,1,9,7,4,0,32,6,LearningTask,,,60.0839452551,3,2015_Mar_03_1245,,
Go,2,circle,magenta,0,0,0,5,1,1,9,7,4,1,33,3,LearningTask,,,60.0839452551,3,2015_Mar_03_1245,,
Go,2,circle,yellow,0,0,0,5,1,1,9,7,4,2,34,0,LearningTask,,,60.0839452551,3,2015_Mar_03_1245,,
Go,2,circle,gray,0,0,0,5,1,1,9,7,4,3,35,5,LearningTask,,,60.0839452551,3,2015_Mar_03_1245,,
Go,2,circle,white,0,0,0,5,1,1,9,7,4,4,36,1,LearningTask,,,60.0839452551,3,2015_Mar_03_1245,,
Go,2,circle,green,0,0,0,5,1,1,9,7,4,5,37,4,LearningTask,,,60.0839452551,3,2015_Mar_03_1245,,
Go,2,circle,orange,0,0,0,5,1,1,9,7,4,6,38,2,LearningTask,,,60.0839452551,3,2015_Mar_03_1245,,
Go,2,circle,blue,0,0,0,5,1,1,9,7,4,7,39,7,LearningTask,,,60.0839452551,3,2015_Mar_03_1245,,
Go,2,circle,white,0,0,0,5,1,1,9,7,5,0,40,1,LearningTask,,,60.0839452551,3,2015_Mar_03_1245,,
Go,2,circle,green,0,0,0,5,1,1,9,7,5,1,41,4,LearningTask,,,60.0839452551,3,2015_Mar_03_1245,,
Go,2,circle,blue,0,0,0,5,1,1,9,7,5,2,42,7,LearningTask,,,60.0839452551,3,2015_Mar_03_1245,,
Go,2,circle,gray,0,0,0,5,1,1,9,7,5,3,43,5,LearningTask,,,60.0839452551,3,2015_Mar_03_1245,,
Go,2,circle,magenta,0,0,0,5,1,1,9,7,5,4,44,3,LearningTask,,,60.0839452551,3,2015_Mar_03_1245,,
Go,2,circle,cyan,0,0,0,5,1,1,9,7,5,5,45,6,LearningTask,,,60.0839452551,3,2015_Mar_03_1245,,
Go,2,circle,yellow,0,0,0,5,1,1,9,7,5,6,46,0,LearningTask,,,60.0839452551,3,2015_Mar_03_1245,,
Go,2,circle,orange,0,0,0,5,1,1,9,7,5,7,47,2,LearningTask,,,60.0839452551,3,2015_Mar_03_1245,,
Go,2,circle,orange,0,0,0,5,1,1,9,7,6,0,48,2,LearningTask,,,60.0839452551,3,2015_Mar_03_1245,,
Go,2,circle,gray,0,0,0,5,1,1,9,7,6,1,49,5,LearningTask,,,60.0839452551,3,2015_Mar_03_1245,,
Go,2,circle,magenta,0,0,0,5,1,1,9,7,6,2,50,3,LearningTask,,,60.0839452551,3,2015_Mar_03_1245,,
Go,2,circle,cyan,0,0,0,5,1,1,9,7,6,3,51,6,LearningTask,,,60.0839452551,3,2015_Mar_03_1245,,
Go,2,circle,green,0,0,0,5,1,1,9,7,6,4,52,4,LearningTask,,,60.0839452551,3,2015_Mar_03_1245,,
Go,2,circle,white,0,0,0,5,1,1,9,7,6,5,53,1,LearningTask,,,60.0839452551,3,2015_Mar_03_1245,,
Go,2,circle,blue,0,0,0,5,1,1,9,7,6,6,54,7,LearningTask,,,60.0839452551,3,2015_Mar_03_1245,,
Go,2,circle,yellow,0,0,0,5,1,1,9,7,6,7,55,0,LearningTask,,,60.0839452551,3,2015_Mar_03_1245,,
Go,2,circle,yellow,0,0,0,5,1,1,9,7,7,0,56,0,LearningTask,,,60.0839452551,3,2015_Mar_03_1245,,
Go,2,circle,orange,0,0,0,5,1,1,9,7,7,1,57,2,LearningTask,,,60.0839452551,3,2015_Mar_03_1245,,
Go,2,circle,gray,0,0,0,5,1,1,9,7,7,2,58,5,LearningTask,,,60.0839452551,3,2015_Mar_03_1245,,
Go,2,circle,magenta,0,0,0,5,1,1,9,7,7,3,59,3,LearningTask,,,60.0839452551,3,2015_Mar_03_1245,,
Go,2,circle,cyan,0,0,0,5,1,1,9,7,7,4,60,6,LearningTask,,,60.0839452551,3,2015_Mar_03_1245,,
Go,2,circle,blue,0,0,0,5,1,1,9,7,7,5,61,7,LearningTask,,,60.0839452551,3,2015_Mar_03_1245,,
Go,2,circle,white,0,0,0,5,1,1,9,7,7,6,62,1,LearningTask,,,60.0839452551,3,2015_Mar_03_1245,,
Go,2,circle,green,0,0,0,5,1,1,9,7,7,7,63,4,LearningTask,,,60.0839452551,3,2015_Mar_03_1245,,
Go,2,circle,,0,0,0,5,1,1,9,7,,,,,LearningTask,,,60.0839452551,3,2015_Mar_03_1245,,
Go,2,invertedTriangle,yellow,0,0,0,5,1,2,10,3,0,0,0,0,LearningTask,,,60.0839452551,3,2015_Mar_03_1245,,
Go,2,invertedTriangle,white,0,0,0,5,1,2,10,3,0,1,1,1,LearningTask,,,60.0839452551,3,2015_Mar_03_1245,,
Go,2,invertedTriangle,orange,0,0,0,5,1,2,10,3,0,2,2,2,LearningTask,,,60.0839452551,3,2015_Mar_03_1245,,
Go,2,invertedTriangle,cyan,0,0,0,5,1,2,10,3,0,3,3,6,LearningTask,,,60.0839452551,3,2015_Mar_03_1245,,
Go,2,invertedTriangle,green,0,0,0,5,1,2,10,3,0,4,4,4,LearningTask,,,60.0839452551,3,2015_Mar_03_1245,,
Go,2,invertedTriangle,blue,0,0,0,5,1,2,10,3,0,5,5,7,LearningTask,,,60.0839452551,3,2015_Mar_03_1245,,
Go,2,invertedTriangle,magenta,0,0,0,5,1,2,10,3,0,6,6,3,LearningTask,,,60.0839452551,3,2015_Mar_03_1245,,
Go,2,invertedTriangle,gray,0,0,0,5,1,2,10,3,0,7,7,5,LearningTask,,,60.0839452551,3,2015_Mar_03_1245,,
Go,2,invertedTriangle,gray,0,0,0,5,1,2,10,3,1,0,8,5,LearningTask,,,60.0839452551,3,2015_Mar_03_1245,,
Go,2,invertedTriangle,blue,0,0,0,5,1,2,10,3,1,1,9,7,LearningTask,,,60.0839452551,3,2015_Mar_03_1245,,
Go,2,invertedTriangle,orange,0,0,0,5,1,2,10,3,1,2,10,2,LearningTask,,,60.0839452551,3,2015_Mar_03_1245,,
Go,2,invertedTriangle,yellow,0,0,0,5,1,2,10,3,1,3,11,0,LearningTask,,,60.0839452551,3,2015_Mar_03_1245,,
Go,2,invertedTriangle,magenta,0,0,0,5,1,2,10,3,1,4,12,3,LearningTask,,,60.0839452551,3,2015_Mar_03_1245,,
Go,2,invertedTriangle,green,0,0,0,5,1,2,10,3,1,5,13,4,LearningTask,,,60.0839452551,3,2015_Mar_03_1245,,
Go,2,invertedTriangle,white,0,0,0,5,1,2,10,3,1,6,14,1,LearningTask,,,60.0839452551,3,2015_Mar_03_1245,,
Go,2,invertedTriangle,cyan,0,0,0,5,1,2,10,3,1,7,15,6,LearningTask,,,60.0839452551,3,2015_Mar_03_1245,,
Go,2,invertedTriangle,white,0,0,0,5,1,2,10,3,2,0,16,1,LearningTask,,,60.0839452551,3,2015_Mar_03_1245,,
Go,2,invertedTriangle,orange,0,0,0,5,1,2,10,3,2,1,17,2,LearningTask,,,60.0839452551,3,2015_Mar_03_1245,,
Go,2,invertedTriangle,yellow,0,0,0,5,1,2,10,3,2,2,18,0,LearningTask,,,60.0839452551,3,2015_Mar_03_1245,,
Go,2,invertedTriangle,blue,0,0,0,5,1,2,10,3,2,3,19,7,LearningTask,,,60.0839452551,3,2015_Mar_03_1245,,
Go,2,invertedTriangle,magenta,0,0,0,5,1,2,10,3,2,4,20,3,LearningTask,,,60.0839452551,3,2015_Mar_03_1245,,
Go,2,invertedTriangle,cyan,0,0,0,5,1,2,10,3,2,5,21,6,LearningTask,,,60.0839452551,3,2015_Mar_03_1245,,
Go,2,invertedTriangle,green,0,0,0,5,1,2,10,3,2,6,22,4,LearningTask,,,60.0839452551,3,2015_Mar_03_1245,,
Go,2,invertedTriangle,gray,0,0,0,5,1,2,10,3,2,7,23,5,LearningTask,,,60.0839452551,3,2015_Mar_03_1245,,
Go,2,invertedTriangle,orange,0,0,0,5,1,2,10,3,3,0,24,2,LearningTask,,,60.0839452551,3,2015_Mar_03_1245,,
Go,2,invertedTriangle,green,0,0,0,5,1,2,10,3,3,1,25,4,LearningTask,,,60.0839452551,3,2015_Mar_03_1245,,
Go,2,invertedTriangle,cyan,0,0,0,5,1,2,10,3,3,2,26,6,LearningTask,,,60.0839452551,3,2015_Mar_03_1245,,
Go,2,invertedTriangle,yellow,0,0,0,5,1,2,10,3,3,3,27,0,LearningTask,,,60.0839452551,3,2015_Mar_03_1245,,
Go,2,invertedTriangle,gray,0,0,0,5,1,2,10,3,3,4,28,5,LearningTask,,,60.0839452551,3,2015_Mar_03_1245,,
Go,2,invertedTriangle,magenta,0,0,0,5,1,2,10,3,3,5,29,3,LearningTask,,,60.0839452551,3,2015_Mar_03_1245,,
Go,2,invertedTriangle,blue,0,0,0,5,1,2,10,3,3,6,30,7,LearningTask,,,60.0839452551,3,2015_Mar_03_1245,,
Go,2,invertedTriangle,white,0,0,0,5,1,2,10,3,3,7,31,1,LearningTask,,,60.0839452551,3,2015_Mar_03_1245,,
Go,2,invertedTriangle,gray,0,0,0,5,1,2,10,3,4,0,32,5,LearningTask,,,60.0839452551,3,2015_Mar_03_1245,,
Go,2,invertedTriangle,white,0,0,0,5,1,2,10,3,4,1,33,1,LearningTask,,,60.0839452551,3,2015_Mar_03_1245,,
Go,2,invertedTriangle,magenta,0,0,0,5,1,2,10,3,4,2,34,3,LearningTask,,,60.0839452551,3,2015_Mar_03_1245,,
Go,2,invertedTriangle,green,0,0,0,5,1,2,10,3,4,3,35,4,LearningTask,,,60.0839452551,3,2015_Mar_03_1245,,
Go,2,invertedTriangle,cyan,0,0,0,5,1,2,10,3,4,4,36,6,LearningTask,,,60.0839452551,3,2015_Mar_03_1245,,
Go,2,invertedTriangle,orange,0,0,0,5,1,2,10,3,4,5,37,2,LearningTask,,,60.0839452551,3,2015_Mar_03_1245,,
Go,2,invertedTriangle,yellow,0,0,0,5,1,2,10,3,4,6,38,0,LearningTask,,,60.0839452551,3,2015_Mar_03_1245,,
Go,2,invertedTriangle,blue,0,0,0,5,1,2,10,3,4,7,39,7,LearningTask,,,60.0839452551,3,2015_Mar_03_1245,,
Go,2,invertedTriangle,white,0,0,0,5,1,2,10,3,5,0,40,1,LearningTask,,,60.0839452551,3,2015_Mar_03_1245,,
Go,2,invertedTriangle,yellow,0,0,0,5,1,2,10,3,5,1,41,0,LearningTask,,,60.0839452551,3,2015_Mar_03_1245,,
Go,2,invertedTriangle,magenta,0,0,0,5,1,2,10,3,5,2,42,3,LearningTask,,,60.0839452551,3,2015_Mar_03_1245,,
Go,2,invertedTriangle,cyan,0,0,0,5,1,2,10,3,5,3,43,6,LearningTask,,,60.0839452551,3,2015_Mar_03_1245,,
Go,2,invertedTriangle,orange,0,0,0,5,1,2,10,3,5,4,44,2,LearningTask,,,60.0839452551,3,2015_Mar_03_1245,,
Go,2,invertedTriangle,green,0,0,0,5,1,2,10,3,5,5,45,4,LearningTask,,,60.0839452551,3,2015_Mar_03_1245,,
Go,2,invertedTriangle,blue,0,0,0,5,1,2,10,3,5,6,46,7,LearningTask,,,60.0839452551,3,2015_Mar_03_1245,,
Go,2,invertedTriangle,gray,0,0,0,5,1,2,10,3,5,7,47,5,LearningTask,,,60.0839452551,3,2015_Mar_03_1245,,
Go,2,invertedTriangle,magenta,0,0,0,5,1,2,10,3,6,0,48,3,LearningTask,,,60.0839452551,3,2015_Mar_03_1245,,
Go,2,invertedTriangle,green,0,0,0,5,1,2,10,3,6,1,49,4,LearningTask,,,60.0839452551,3,2015_Mar_03_1245,,
Go,2,invertedTriangle,gray,0,0,0,5,1,2,10,3,6,2,50,5,LearningTask,,,60.0839452551,3,2015_Mar_03_1245,,
Go,2,invertedTriangle,white,0,0,0,5,1,2,10,3,6,3,51,1,LearningTask,,,60.0839452551,3,2015_Mar_03_1245,,
Go,2,invertedTriangle,blue,0,0,0,5,1,2,10,3,6,4,52,7,LearningTask,,,60.0839452551,3,2015_Mar_03_1245,,
Go,2,invertedTriangle,yellow,0,0,0,5,1,2,10,3,6,5,53,0,LearningTask,,,60.0839452551,3,2015_Mar_03_1245,,
Go,2,invertedTriangle,cyan,0,0,0,5,1,2,10,3,6,6,54,6,LearningTask,,,60.0839452551,3,2015_Mar_03_1245,,
Go,2,invertedTriangle,orange,0,0,0,5,1,2,10,3,6,7,55,2,LearningTask,,,60.0839452551,3,2015_Mar_03_1245,,
Go,2,invertedTriangle,white,0,0,0,5,1,2,10,3,7,0,56,1,LearningTask,,,60.0839452551,3,2015_Mar_03_1245,,
Go,2,invertedTriangle,blue,0,0,0,5,1,2,10,3,7,1,57,7,LearningTask,,,60.0839452551,3,2015_Mar_03_1245,,
Go,2,invertedTriangle,magenta,0,0,0,5,1,2,10,3,7,2,58,3,LearningTask,,,60.0839452551,3,2015_Mar_03_1245,,
Go,2,invertedTriangle,orange,0,0,0,5,1,2,10,3,7,3,59,2,LearningTask,,,60.0839452551,3,2015_Mar_03_1245,,
Go,2,invertedTriangle,green,0,0,0,5,1,2,10,3,7,4,60,4,LearningTask,,,60.0839452551,3,2015_Mar_03_1245,,
Go,2,invertedTriangle,cyan,0,0,0,5,1,2,10,3,7,5,61,6,LearningTask,,,60.0839452551,3,2015_Mar_03_1245,,
Go,2,invertedTriangle,yellow,0,0,0,5,1,2,10,3,7,6,62,0,LearningTask,,,60.0839452551,3,2015_Mar_03_1245,,
Go,2,invertedTriangle,gray,0,0,0,5,1,2,10,3,7,7,63,5,LearningTask,,,60.0839452551,3,2015_Mar_03_1245,,
Go,2,invertedTriangle,,0,0,0,5,1,2,10,3,,,,,LearningTask,,,60.0839452551,3,2015_Mar_03_1245,,
Go,2,line,gray,0,0,0,5,1,3,11,2,0,0,0,5,LearningTask,,,60.0839452551,3,2015_Mar_03_1245,,
Go,2,line,orange,0,0,0,5,1,3,11,2,0,1,1,2,LearningTask,,,60.0839452551,3,2015_Mar_03_1245,,
Go,2,line,blue,0,0,0,5,1,3,11,2,0,2,2,7,LearningTask,,,60.0839452551,3,2015_Mar_03_1245,,
Go,2,line,green,0,0,0,5,1,3,11,2,0,3,3,4,LearningTask,,,60.0839452551,3,2015_Mar_03_1245,,
Go,2,line,cyan,0,0,0,5,1,3,11,2,0,4,4,6,LearningTask,,,60.0839452551,3,2015_Mar_03_1245,,
Go,2,line,white,0,0,0,5,1,3,11,2,0,5,5,1,LearningTask,,,60.0839452551,3,2015_Mar_03_1245,,
Go,2,line,yellow,0,0,0,5,1,3,11,2,0,6,6,0,LearningTask,,,60.0839452551,3,2015_Mar_03_1245,,
Go,2,line,magenta,0,0,0,5,1,3,11,2,0,7,7,3,LearningTask,,,60.0839452551,3,2015_Mar_03_1245,,
Go,2,line,blue,0,0,0,5,1,3,11,2,1,0,8,7,LearningTask,,,60.0839452551,3,2015_Mar_03_1245,,
Go,2,line,white,0,0,0,5,1,3,11,2,1,1,9,1,LearningTask,,,60.0839452551,3,2015_Mar_03_1245,,
Go,2,line,magenta,0,0,0,5,1,3,11,2,1,2,10,3,LearningTask,,,60.0839452551,3,2015_Mar_03_1245,,
Go,2,line,cyan,0,0,0,5,1,3,11,2,1,3,11,6,LearningTask,,,60.0839452551,3,2015_Mar_03_1245,,
Go,2,line,gray,0,0,0,5,1,3,11,2,1,4,12,5,LearningTask,,,60.0839452551,3,2015_Mar_03_1245,,
Go,2,line,orange,0,0,0,5,1,3,11,2,1,5,13,2,LearningTask,,,60.0839452551,3,2015_Mar_03_1245,,
Go,2,line,green,0,0,0,5,1,3,11,2,1,6,14,4,LearningTask,,,60.0839452551,3,2015_Mar_03_1245,,
Go,2,line,yellow,0,0,0,5,1,3,11,2,1,7,15,0,LearningTask,,,60.0839452551,3,2015_Mar_03_1245,,
Go,2,line,blue,0,0,0,5,1,3,11,2,2,0,16,7,LearningTask,,,60.0839452551,3,2015_Mar_03_1245,,
Go,2,line,green,0,0,0,5,1,3,11,2,2,1,17,4,LearningTask,,,60.0839452551,3,2015_Mar_03_1245,,
Go,2,line,orange,0,0,0,5,1,3,11,2,2,2,18,2,LearningTask,,,60.0839452551,3,2015_Mar_03_1245,,
Go,2,line,cyan,0,0,0,5,1,3,11,2,2,3,19,6,LearningTask,,,60.0839452551,3,2015_Mar_03_1245,,
Go,2,line,magenta,0,0,0,5,1,3,11,2,2,4,20,3,LearningTask,,,60.0839452551,3,2015_Mar_03_1245,,
Go,2,line,yellow,0,0,0,5,1,3,11,2,2,5,21,0,LearningTask,,,60.0839452551,3,2015_Mar_03_1245,,
Go,2,line,gray,0,0,0,5,1,3,11,2,2,6,22,5,LearningTask,,,60.0839452551,3,2015_Mar_03_1245,,
Go,2,line,white,0,0,0,5,1,3,11,2,2,7,23,1,LearningTask,,,60.0839452551,3,2015_Mar_03_1245,,
Go,2,line,green,0,0,0,5,1,3,11,2,3,0,24,4,LearningTask,,,60.0839452551,3,2015_Mar_03_1245,,
Go,2,line,magenta,0,0,0,5,1,3,11,2,3,1,25,3,LearningTask,,,60.0839452551,3,2015_Mar_03_1245,,
Go,2,line,cyan,0,0,0,5,1,3,11,2,3,2,26,6,LearningTask,,,60.0839452551,3,2015_Mar_03_1245,,
Go,2,line,yellow,0,0,0,5,1,3,11,2,3,3,27,0,LearningTask,,,60.0839452551,3,2015_Mar_03_1245,,
Go,2,line,blue,0,0,0,5,1,3,11,2,3,4,28,7,LearningTask,,,60.0839452551,3,2015_Mar_03_1245,,
Go,2,line,orange,0,0,0,5,1,3,11,2,3,5,29,2,LearningTask,,,60.0839452551,3,2015_Mar_03_1245,,
Go,2,line,white,0,0,0,5,1,3,11,2,3,6,30,1,LearningTask,,,60.0839452551,3,2015_Mar_03_1245,,
Go,2,line,gray,0,0,0,5,1,3,11,2,3,7,31,5,LearningTask,,,60.0839452551,3,2015_Mar_03_1245,,
Go,2,line,yellow,0,0,0,5,1,3,11,2,4,0,32,0,LearningTask,,,60.0839452551,3,2015_Mar_03_1245,,
Go,2,line,white,0,0,0,5,1,3,11,2,4,1,33,1,LearningTask,,,60.0839452551,3,2015_Mar_03_1245,,
Go,2,line,gray,0,0,0,5,1,3,11,2,4,2,34,5,LearningTask,,,60.0839452551,3,2015_Mar_03_1245,,
Go,2,line,magenta,0,0,0,5,1,3,11,2,4,3,35,3,LearningTask,,,60.0839452551,3,2015_Mar_03_1245,,
Go,2,line,cyan,0,0,0,5,1,3,11,2,4,4,36,6,LearningTask,,,60.0839452551,3,2015_Mar_03_1245,,
Go,2,line,blue,0,0,0,5,1,3,11,2,4,5,37,7,LearningTask,,,60.0839452551,3,2015_Mar_03_1245,,
Go,2,line,orange,0,0,0,5,1,3,11,2,4,6,38,2,LearningTask,,,60.0839452551,3,2015_Mar_03_1245,,
Go,2,line,green,0,0,0,5,1,3,11,2,4,7,39,4,LearningTask,,,60.0839452551,3,2015_Mar_03_1245,,
Go,2,line,gray,0,0,0,5,1,3,11,2,5,0,40,5,LearningTask,,,60.0839452551,3,2015_Mar_03_1245,,
Go,2,line,blue,0,0,0,5,1,3,11,2,5,1,41,7,LearningTask,,,60.0839452551,3,2015_Mar_03_1245,,
Go,2,line,green,0,0,0,5,1,3,11,2,5,2,42,4,LearningTask,,,60.0839452551,3,2015_Mar_03_1245,,
Go,2,line,magenta,0,0,0,5,1,3,11,2,5,3,43,3,LearningTask,,,60.0839452551,3,2015_Mar_03_1245,,
Go,2,line,yellow,0,0,0,5,1,3,11,2,5,4,44,0,LearningTask,,,60.0839452551,3,2015_Mar_03_1245,,
Go,2,line,cyan,0,0,0,5,1,3,11,2,5,5,45,6,LearningTask,,,60.0839452551,3,2015_Mar_03_1245,,
Go,2,line,orange,0,0,0,5,1,3,11,2,5,6,46,2,LearningTask,,,60.0839452551,3,2015_Mar_03_1245,,
Go,2,line,white,0,0,0,5,1,3,11,2,5,7,47,1,LearningTask,,,60.0839452551,3,2015_Mar_03_1245,,
Go,2,line,cyan,0,0,0,5,1,3,11,2,6,0,48,6,LearningTask,,,60.0839452551,3,2015_Mar_03_1245,,
Go,2,line,white,0,0,0,5,1,3,11,2,6,1,49,1,LearningTask,,,60.0839452551,3,2015_Mar_03_1245,,
Go,2,line,green,0,0,0,5,1,3,11,2,6,2,50,4,LearningTask,,,60.0839452551,3,2015_Mar_03_1245,,
Go,2,line,gray,0,0,0,5,1,3,11,2,6,3,51,5,LearningTask,,,60.0839452551,3,2015_Mar_03_1245,,
Go,2,line,blue,0,0,0,5,1,3,11,2,6,4,52,7,LearningTask,,,60.0839452551,3,2015_Mar_03_1245,,
Go,2,line,orange,0,0,0,5,1,3,11,2,6,5,53,2,LearningTask,,,60.0839452551,3,2015_Mar_03_1245,,
Go,2,line,yellow,0,0,0,5,1,3,11,2,6,6,54,0,LearningTask,,,60.0839452551,3,2015_Mar_03_1245,,
Go,2,line,magenta,0,0,0,5,1,3,11,2,6,7,55,3,LearningTask,,,60.0839452551,3,2015_Mar_03_1245,,
Go,2,line,gray,0,0,0,5,1,3,11,2,7,0,56,5,LearningTask,,,60.0839452551,3,2015_Mar_03_1245,,
Go,2,line,magenta,0,0,0,5,1,3,11,2,7,1,57,3,LearningTask,,,60.0839452551,3,2015_Mar_03_1245,,
Go,2,line,green,0,0,0,5,1,3,11,2,7,2,58,4,LearningTask,,,60.0839452551,3,2015_Mar_03_1245,,
Go,2,line,yellow,0,0,0,5,1,3,11,2,7,3,59,0,LearningTask,,,60.0839452551,3,2015_Mar_03_1245,,
Go,2,line,orange,0,0,0,5,1,3,11,2,7,4,60,2,LearningTask,,,60.0839452551,3,2015_Mar_03_1245,,
Go,2,line,cyan,0,0,0,5,1,3,11,2,7,5,61,6,LearningTask,,,60.0839452551,3,2015_Mar_03_1245,,
Go,2,line,white,0,0,0,5,1,3,11,2,7,6,62,1,LearningTask,,,60.0839452551,3,2015_Mar_03_1245,,
Go,2,line,blue,0,0,0,5,1,3,11,2,7,7,63,7,LearningTask,,,60.0839452551,3,2015_Mar_03_1245,,
Go,2,line,,0,0,0,5,1,3,11,2,,,,,LearningTask,,,60.0839452551,3,2015_Mar_03_1245,,
Go,2,diamond,magenta,0,0,0,5,1,4,12,5,0,0,0,3,LearningTask,,,60.0839452551,3,2015_Mar_03_1245,,
Go,2,diamond,green,0,0,0,5,1,4,12,5,0,1,1,4,LearningTask,,,60.0839452551,3,2015_Mar_03_1245,,
Go,2,diamond,blue,0,0,0,5,1,4,12,5,0,2,2,7,LearningTask,,,60.0839452551,3,2015_Mar_03_1245,,
Go,2,diamond,yellow,0,0,0,5,1,4,12,5,0,3,3,0,LearningTask,,,60.0839452551,3,2015_Mar_03_1245,,
Go,2,diamond,cyan,0,0,0,5,1,4,12,5,0,4,4,6,LearningTask,,,60.0839452551,3,2015_Mar_03_1245,,
Go,2,diamond,orange,0,0,0,5,1,4,12,5,0,5,5,2,LearningTask,,,60.0839452551,3,2015_Mar_03_1245,,
Go,2,diamond,gray,0,0,0,5,1,4,12,5,0,6,6,5,LearningTask,,,60.0839452551,3,2015_Mar_03_1245,,
Go,2,diamond,white,0,0,0,5,1,4,12,5,0,7,7,1,LearningTask,,,60.0839452551,3,2015_Mar_03_1245,,
Go,2,diamond,green,0,0,0,5,1,4,12,5,1,0,8,4,LearningTask,,,60.0839452551,3,2015_Mar_03_1245,,
Go,2,diamond,orange,0,0,0,5,1,4,12,5,1,1,9,2,LearningTask,,,60.0839452551,3,2015_Mar_03_1245,,
Go,2,diamond,blue,0,0,0,5,1,4,12,5,1,2,10,7,LearningTask,,,60.0839452551,3,2015_Mar_03_1245,,
Go,2,diamond,magenta,0,0,0,5,1,4,12,5,1,3,11,3,LearningTask,,,60.0839452551,3,2015_Mar_03_1245,,
Go,2,diamond,yellow,0,0,0,5,1,4,12,5,1,4,12,0,LearningTask,,,60.0839452551,3,2015_Mar_03_1245,,
Go,2,diamond,white,0,0,0,5,1,4,12,5,1,5,13,1,LearningTask,,,60.0839452551,3,2015_Mar_03_1245,,
Go,2,diamond,cyan,0,0,0,5,1,4,12,5,1,6,14,6,LearningTask,,,60.0839452551,3,2015_Mar_03_1245,,
Go,2,diamond,gray,0,0,0,5,1,4,12,5,1,7,15,5,LearningTask,,,60.0839452551,3,2015_Mar_03_1245,,
Go,2,diamond,magenta,0,0,0,5,1,4,12,5,2,0,16,3,LearningTask,,,60.0839452551,3,2015_Mar_03_1245,,
Go,2,diamond,green,0,0,0,5,1,4,12,5,2,1,17,4,LearningTask,,,60.0839452551,3,2015_Mar_03_1245,,
Go,2,diamond,gray,0,0,0,5,1,4,12,5,2,2,18,5,LearningTask,,,60.0839452551,3,2015_Mar_03_1245,,
Go,2,diamond,cyan,0,0,0,5,1,4,12,5,2,3,19,6,LearningTask,,,60.0839452551,3,2015_Mar_03_1245,,
Go,2,diamond,orange,0,0,0,5,1,4,12,5,2,4,20,2,LearningTask,,,60.0839452551,3,2015_Mar_03_1245,,
Go,2,diamond,blue,0,0,0,5,1,4,12,5,2,5,21,7,LearningTask,,,60.0839452551,3,2015_Mar_03_1245,,
Go,2,diamond,white,0,0,0,5,1,4,12,5,2,6,22,1,LearningTask,,,60.0839452551,3,2015_Mar_03_1245,,
Go,2,diamond,yellow,0,0,0,5,1,4,12,5,2,7,23,0,LearningTask,,,60.0839452551,3,2015_Mar_03_1245,,
Go,2,diamond,magenta,0,0,0,5,1,4,12,5,3,0,24,3,LearningTask,,,60.0839452551,3,2015_Mar_03_1245,,
Go,2,diamond,green,0,0,0,5,1,4,12,5,3,1,25,4,LearningTask,,,60.0839452551,3,2015_Mar_03_1245,,
Go,2,diamond,cyan,0,0,0,5,1,4,12,5,3,2,26,6,LearningTask,,,60.0839452551,3,2015_Mar_03_1245,,
Go,2,diamond,blue,0,0,0,5,1,4,12,5,3,3,27,7,LearningTask,,,60.0839452551,3,2015_Mar_03_1245,,
Go,2,diamond,white,0,0,0,5,1,4,12,5,3,4,28,1,LearningTask,,,60.0839452551,3,2015_Mar_03_1245,,
Go,2,diamond,yellow,0,0,0,5,1,4,12,5,3,5,29,0,LearningTask,,,60.0839452551,3,2015_Mar_03_1245,,
Go,2,diamond,orange,0,0,0,5,1,4,12,5,3,6,30,2,LearningTask,,,60.0839452551,3,2015_Mar_03_1245,,
Go,2,diamond,gray,0,0,0,5,1,4,12,5,3,7,31,5,LearningTask,,,60.0839452551,3,2015_Mar_03_1245,,
Go,2,diamond,orange,0,0,0,5,1,4,12,5,4,0,32,2,LearningTask,,,60.0839452551,3,2015_Mar_03_1245,,
Go,2,diamond,yellow,0,0,0,5,1,4,12,5,4,1,33,0,LearningTask,,,60.0839452551,3,2015_Mar_03_1245,,
Go,2,diamond,white,0,0,0,5,1,4,12,5,4,2,34,1,LearningTask,,,60.0839452551,3,2015_Mar_03_1245,,
Go,2,diamond,cyan,0,0,0,5,1,4,12,5,4,3,35,6,LearningTask,,,60.0839452551,3,2015_Mar_03_1245,,
Go,2,diamond,blue,0,0,0,5,1,4,12,5,4,4,36,7,LearningTask,,,60.0839452551,3,2015_Mar_03_1245,,
Go,2,diamond,magenta,0,0,0,5,1,4,12,5,4,5,37,3,LearningTask,,,60.0839452551,3,2015_Mar_03_1245,,
Go,2,diamond,gray,0,0,0,5,1,4,12,5,4,6,38,5,LearningTask,,,60.0839452551,3,2015_Mar_03_1245,,
Go,2,diamond,green,0,0,0,5,1,4,12,5,4,7,39,4,LearningTask,,,60.0839452551,3,2015_Mar_03_1245,,
Go,2,diamond,cyan,0,0,0,5,1,4,12,5,5,0,40,6,LearningTask,,,60.0839452551,3,2015_Mar_03_1245,,
Go,2,diamond,magenta,0,0,0,5,1,4,12,5,5,1,41,3,LearningTask,,,60.0839452551,3,2015_Mar_03_1245,,
Go,2,diamond,orange,0,0,0,5,1,4,12,5,5,2,42,2,LearningTask,,,60.0839452551,3,2015_Mar_03_1245,,
Go,2,diamond,green,0,0,0,5,1,4,12,5,5,3,43,4,LearningTask,,,60.0839452551,3,2015_Mar_03_1245,,
Go,2,diamond,blue,0,0,0,5,1,4,12,5,5,4,44,7,LearningTask,,,60.0839452551,3,2015_Mar_03_1245,,
Go,2,diamond,yellow,0,0,0,5,1,4,12,5,5,5,45,0,LearningTask,,,60.0839452551,3,2015_Mar_03_1245,,
Go,2,diamond,gray,0,0,0,5,1,4,12,5,5,6,46,5,LearningTask,,,60.0839452551,3,2015_Mar_03_1245,,
Go,2,diamond,white,0,0,0,5,1,4,12,5,5,7,47,1,LearningTask,,,60.0839452551,3,2015_Mar_03_1245,,
Go,2,diamond,cyan,0,0,0,5,1,4,12,5,6,0,48,6,LearningTask,,,60.0839452551,3,2015_Mar_03_1245,,
Go,2,diamond,green,0,0,0,5,1,4,12,5,6,1,49,4,LearningTask,,,60.0839452551,3,2015_Mar_03_1245,,
Go,2,diamond,white,0,0,0,5,1,4,12,5,6,2,50,1,LearningTask,,,60.0839452551,3,2015_Mar_03_1245,,
Go,2,diamond,magenta,0,0,0,5,1,4,12,5,6,3,51,3,LearningTask,,,60.0839452551,3,2015_Mar_03_1245,,
Go,2,diamond,gray,0,0,0,5,1,4,12,5,6,4,52,5,LearningTask,,,60.0839452551,3,2015_Mar_03_1245,,
Go,2,diamond,yellow,0,0,0,5,1,4,12,5,6,5,53,0,LearningTask,,,60.0839452551,3,2015_Mar_03_1245,,
Go,2,diamond,blue,0,0,0,5,1,4,12,5,6,6,54,7,LearningTask,,,60.0839452551,3,2015_Mar_03_1245,,
Go,2,diamond,orange,0,0,0,5,1,4,12,5,6,7,55,2,LearningTask,,,60.0839452551,3,2015_Mar_03_1245,,
Go,2,diamond,orange,0,0,0,5,1,4,12,5,7,0,56,2,LearningTask,,,60.0839452551,3,2015_Mar_03_1245,,
Go,2,diamond,magenta,0,0,0,5,1,4,12,5,7,1,57,3,LearningTask,,,60.0839452551,3,2015_Mar_03_1245,,
Go,2,diamond,gray,0,0,0,5,1,4,12,5,7,2,58,5,LearningTask,,,60.0839452551,3,2015_Mar_03_1245,,
Go,2,diamond,blue,0,0,0,5,1,4,12,5,7,3,59,7,LearningTask,,,60.0839452551,3,2015_Mar_03_1245,,
Go,2,diamond,white,0,0,0,5,1,4,12,5,7,4,60,1,LearningTask,,,60.0839452551,3,2015_Mar_03_1245,,
Go,2,diamond,cyan,0,0,0,5,1,4,12,5,7,5,61,6,LearningTask,,,60.0839452551,3,2015_Mar_03_1245,,
Go,2,diamond,green,0,0,0,5,1,4,12,5,7,6,62,4,LearningTask,,,60.0839452551,3,2015_Mar_03_1245,,
Go,2,diamond,yellow,0,0,0,5,1,4,12,5,7,7,63,0,LearningTask,,,60.0839452551,3,2015_Mar_03_1245,,
Go,2,diamond,,0,0,0,5,1,4,12,5,,,,,LearningTask,,,60.0839452551,3,2015_Mar_03_1245,,
Go,2,hexagon,green,0,0,0,5,1,5,13,4,0,0,0,4,LearningTask,,,60.0839452551,3,2015_Mar_03_1245,,
Go,2,hexagon,yellow,0,0,0,5,1,5,13,4,0,1,1,0,LearningTask,,,60.0839452551,3,2015_Mar_03_1245,,
Go,2,hexagon,cyan,0,0,0,5,1,5,13,4,0,2,2,6,LearningTask,,,60.0839452551,3,2015_Mar_03_1245,,
Go,2,hexagon,magenta,0,0,0,5,1,5,13,4,0,3,3,3,LearningTask,,,60.0839452551,3,2015_Mar_03_1245,,
Go,2,hexagon,white,0,0,0,5,1,5,13,4,0,4,4,1,LearningTask,,,60.0839452551,3,2015_Mar_03_1245,,
Go,2,hexagon,orange,0,0,0,5,1,5,13,4,0,5,5,2,LearningTask,,,60.0839452551,3,2015_Mar_03_1245,,
Go,2,hexagon,gray,0,0,0,5,1,5,13,4,0,6,6,5,LearningTask,,,60.0839452551,3,2015_Mar_03_1245,,
Go,2,hexagon,blue,0,0,0,5,1,5,13,4,0,7,7,7,LearningTask,,,60.0839452551,3,2015_Mar_03_1245,,
Go,2,hexagon,white,0,0,0,5,1,5,13,4,1,0,8,1,LearningTask,,,60.0839452551,3,2015_Mar_03_1245,,
Go,2,hexagon,orange,0,0,0,5,1,5,13,4,1,1,9,2,LearningTask,,,60.0839452551,3,2015_Mar_03_1245,,
Go,2,hexagon,green,0,0,0,5,1,5,13,4,1,2,10,4,LearningTask,,,60.0839452551,3,2015_Mar_03_1245,,
Go,2,hexagon,magenta,0,0,0,5,1,5,13,4,1,3,11,3,LearningTask,,,60.0839452551,3,2015_Mar_03_1245,,
Go,2,hexagon,gray,0,0,0,5,1,5,13,4,1,4,12,5,LearningTask,,,60.0839452551,3,2015_Mar_03_1245,,
Go,2,hexagon,yellow,0,0,0,5,1,5,13,4,1,5,13,0,LearningTask,,,60.0839452551,3,2015_Mar_03_1245,,
Go,2,hexagon,cyan,0,0,0,5,1,5,13,4,1,6,14,6,LearningTask,,,60.0839452551,3,2015_Mar_03_1245,,
Go,2,hexagon,blue,0,0,0,5,1,5,13,4,1,7,15,7,LearningTask,,,60.0839452551,3,2015_Mar_03_1245,,
Go,2,hexagon,orange,0,0,0,5,1,5,13,4,2,0,16,2,LearningTask,,,60.0839452551,3,2015_Mar_03_1245,,
Go,2,hexagon,green,0,0,0,5,1,5,13,4,2,1,17,4,LearningTask,,,60.0839452551,3,2015_Mar_03_1245,,
Go,2,hexagon,yellow,0,0,0,5,1,5,13,4,2,2,18,0,LearningTask,,,60.0839452551,3,2015_Mar_03_1245,,
Go,2,hexagon,white,0,0,0,5,1,5,13,4,2,3,19,1,LearningTask,,,60.0839452551,3,2015_Mar_03_1245,,
Go,2,hexagon,magenta,0,0,0,5,1,5,13,4,2,4,20,3,LearningTask,,,60.0839452551,3,2015_Mar_03_1245,,
Go,2,hexagon,gray,0,0,0,5,1,5,13,4,2,5,21,5,LearningTask,,,60.0839452551,3,2015_Mar_03_1245,,
Go,2,hexagon,blue,0,0,0,5,1,5,13,4,2,6,22,7,LearningTask,,,60.0839452551,3,2015_Mar_03_1245,,
Go,2,hexagon,cyan,0,0,0,5,1,5,13,4,2,7,23,6,LearningTask,,,60.0839452551,3,2015_Mar_03_1245,,
Go,2,hexagon,orange,0,0,0,5,1,5,13,4,3,0,24,2,LearningTask,,,60.0839452551,3,2015_Mar_03_1245,,
Go,2,hexagon,blue,0,0,0,5,1,5,13,4,3,1,25,7,LearningTask,,,60.0839452551,3,2015_Mar_03_1245,,
Go,2,hexagon,magenta,0,0,0,5,1,5,13,4,3,2,26,3,LearningTask,,,60.0839452551,3,2015_Mar_03_1245,,
Go,2,hexagon,green,0,0,0,5,1,5,13,4,3,3,27,4,LearningTask,,,60.0839452551,3,2015_Mar_03_1245,,
Go,2,hexagon,white,0,0,0,5,1,5,13,4,3,4,28,1,LearningTask,,,60.0839452551,3,2015_Mar_03_1245,,
Go,2,hexagon,cyan,0,0,0,5,1,5,13,4,3,5,29,6,LearningTask,,,60.0839452551,3,2015_Mar_03_1245,,
Go,2,hexagon,gray,0,0,0,5,1,5,13,4,3,6,30,5,LearningTask,,,60.0839452551,3,2015_Mar_03_1245,,
Go,2,hexagon,yellow,0,0,0,5,1,5,13,4,3,7,31,0,LearningTask,,,60.0839452551,3,2015_Mar_03_1245,,
Go,2,hexagon,white,0,0,0,5,1,5,13,4,4,0,32,1,LearningTask,,,60.0839452551,3,2015_Mar_03_1245,,
Go,2,hexagon,yellow,0,0,0,5,1,5,13,4,4,1,33,0,LearningTask,,,60.0839452551,3,2015_Mar_03_1245,,
Go,2,hexagon,green,0,0,0,5,1,5,13,4,4,2,34,4,LearningTask,,,60.0839452551,3,2015_Mar_03_1245,,
Go,2,hexagon,magenta,0,0,0,5,1,5,13,4,4,3,35,3,LearningTask,,,60.0839452551,3,2015_Mar_03_1245,,
Go,2,hexagon,cyan,0,0,0,5,1,5,13,4,4,4,36,6,LearningTask,,,60.0839452551,3,2015_Mar_03_1245,,
Go,2,hexagon,orange,0,0,0,5,1,5,13,4,4,5,37,2,LearningTask,,,60.0839452551,3,2015_Mar_03_1245,,
Go,2,hexagon,blue,0,0,0,5,1,5,13,4,4,6,38,7,LearningTask,,,60.0839452551,3,2015_Mar_03_1245,,
Go,2,hexagon,gray,0,0,0,5,1,5,13,4,4,7,39,5,LearningTask,,,60.0839452551,3,2015_Mar_03_1245,,
Go,2,hexagon,cyan,0,0,0,5,1,5,13,4,5,0,40,6,LearningTask,,,60.0839452551,3,2015_Mar_03_1245,,
Go,2,hexagon,gray,0,0,0,5,1,5,13,4,5,1,41,5,LearningTask,,,60.0839452551,3,2015_Mar_03_1245,,
Go,2,hexagon,blue,0,0,0,5,1,5,13,4,5,2,42,7,LearningTask,,,60.0839452551,3,2015_Mar_03_1245,,
Go,2,hexagon,orange,0,0,0,5,1,5,13,4,5,3,43,2,LearningTask,,,60.0839452551,3,2015_Mar_03_1245,,
Go,2,hexagon,yellow,0,0,0,5,1,5,13,4,5,4,44,0,LearningTask,,,60.0839452551,3,2015_Mar_03_1245,,
Go,2,hexagon,magenta,0,0,0,5,1,5,13,4,5,5,45,3,LearningTask,,,60.0839452551,3,2015_Mar_03_1245,,
Go,2,hexagon,white,0,0,0,5,1,5,13,4,5,6,46,1,LearningTask,,,60.0839452551,3,2015_Mar_03_1245,,
Go,2,hexagon,green,0,0,0,5,1,5,13,4,5,7,47,4,LearningTask,,,60.0839452551,3,2015_Mar_03_1245,,
Go,2,hexagon,yellow,0,0,0,5,1,5,13,4,6,0,48,0,LearningTask,,,60.0839452551,3,2015_Mar_03_1245,,
Go,2,hexagon,magenta,0,0,0,5,1,5,13,4,6,1,49,3,LearningTask,,,60.0839452551,3,2015_Mar_03_1245,,
Go,2,hexagon,green,0,0,0,5,1,5,13,4,6,2,50,4,LearningTask,,,60.0839452551,3,2015_Mar_03_1245,,
Go,2,hexagon,blue,0,0,0,5,1,5,13,4,6,3,51,7,LearningTask,,,60.0839452551,3,2015_Mar_03_1245,,
Go,2,hexagon,white,0,0,0,5,1,5,13,4,6,4,52,1,LearningTask,,,60.0839452551,3,2015_Mar_03_1245,,
Go,2,hexagon,orange,0,0,0,5,1,5,13,4,6,5,53,2,LearningTask,,,60.0839452551,3,2015_Mar_03_1245,,
Go,2,hexagon,gray,0,0,0,5,1,5,13,4,6,6,54,5,LearningTask,,,60.0839452551,3,2015_Mar_03_1245,,
Go,2,hexagon,cyan,0,0,0,5,1,5,13,4,6,7,55,6,LearningTask,,,60.0839452551,3,2015_Mar_03_1245,,
Go,2,hexagon,cyan,0,0,0,5,1,5,13,4,7,0,56,6,LearningTask,,,60.0839452551,3,2015_Mar_03_1245,,
Go,2,hexagon,yellow,0,0,0,5,1,5,13,4,7,1,57,0,LearningTask,,,60.0839452551,3,2015_Mar_03_1245,,
Go,2,hexagon,orange,0,0,0,5,1,5,13,4,7,2,58,2,LearningTask,,,60.0839452551,3,2015_Mar_03_1245,,
Go,2,hexagon,white,0,0,0,5,1,5,13,4,7,3,59,1,LearningTask,,,60.0839452551,3,2015_Mar_03_1245,,
Go,2,hexagon,green,0,0,0,5,1,5,13,4,7,4,60,4,LearningTask,,,60.0839452551,3,2015_Mar_03_1245,,
Go,2,hexagon,gray,0,0,0,5,1,5,13,4,7,5,61,5,LearningTask,,,60.0839452551,3,2015_Mar_03_1245,,
Go,2,hexagon,magenta,0,0,0,5,1,5,13,4,7,6,62,3,LearningTask,,,60.0839452551,3,2015_Mar_03_1245,,
Go,2,hexagon,blue,0,0,0,5,1,5,13,4,7,7,63,7,LearningTask,,,60.0839452551,3,2015_Mar_03_1245,,
Go,2,hexagon,,0,0,0,5,1,5,13,4,,,,,LearningTask,,,60.0839452551,3,2015_Mar_03_1245,,
Go,2,cross,white,0,0,0,5,1,6,14,6,0,0,0,1,LearningTask,,,60.0839452551,3,2015_Mar_03_1245,,
Go,2,cross,yellow,0,0,0,5,1,6,14,6,0,1,1,0,LearningTask,,,60.0839452551,3,2015_Mar_03_1245,,
Go,2,cross,gray,0,0,0,5,1,6,14,6,0,2,2,5,LearningTask,,,60.0839452551,3,2015_Mar_03_1245,,
Go,2,cross,cyan,0,0,0,5,1,6,14,6,0,3,3,6,LearningTask,,,60.0839452551,3,2015_Mar_03_1245,,
Go,2,cross,green,0,0,0,5,1,6,14,6,0,4,4,4,LearningTask,,,60.0839452551,3,2015_Mar_03_1245,,
Go,2,cross,orange,0,0,0,5,1,6,14,6,0,5,5,2,LearningTask,,,60.0839452551,3,2015_Mar_03_1245,,
Go,2,cross,blue,0,0,0,5,1,6,14,6,0,6,6,7,LearningTask,,,60.0839452551,3,2015_Mar_03_1245,,
Go,2,cross,magenta,0,0,0,5,1,6,14,6,0,7,7,3,LearningTask,,,60.0839452551,3,2015_Mar_03_1245,,
Go,2,cross,yellow,0,0,0,5,1,6,14,6,1,0,8,0,LearningTask,,,60.0839452551,3,2015_Mar_03_1245,,
Go,2,cross,gray,0,0,0,5,1,6,14,6,1,1,9,5,LearningTask,,,60.0839452551,3,2015_Mar_03_1245,,
Go,2,cross,green,0,0,0,5,1,6,14,6,1,2,10,4,LearningTask,,,60.0839452551,3,2015_Mar_03_1245,,
Go,2,cross,magenta,0,0,0,5,1,6,14,6,1,3,11,3,LearningTask,,,60.0839452551,3,2015_Mar_03_1245,,
Go,2,cross,blue,0,0,0,5,1,6,14,6,1,4,12,7,LearningTask,,,60.0839452551,3,2015_Mar_03_1245,,
Go,2,cross,cyan,0,0,0,5,1,6,14,6,1,5,13,6,LearningTask,,,60.0839452551,3,2015_Mar_03_1245,,
Go,2,cross,white,0,0,0,5,1,6,14,6,1,6,14,1,LearningTask,,,60.0839452551,3,2015_Mar_03_1245,,
Go,2,cross,orange,0,0,0,5,1,6,14,6,1,7,15,2,LearningTask,,,60.0839452551,3,2015_Mar_03_1245,,
Go,2,cross,cyan,0,0,0,5,1,6,14,6,2,0,16,6,LearningTask,,,60.0839452551,3,2015_Mar_03_1245,,
Go,2,cross,blue,0,0,0,5,1,6,14,6,2,1,17,7,LearningTask,,,60.0839452551,3,2015_Mar_03_1245,,
Go,2,cross,orange,0,0,0,5,1,6,14,6,2,2,18,2,LearningTask,,,60.0839452551,3,2015_Mar_03_1245,,
Go,2,cross,gray,0,0,0,5,1,6,14,6,2,3,19,5,LearningTask,,,60.0839452551,3,2015_Mar_03_1245,,
Go,2,cross,magenta,0,0,0,5,1,6,14,6,2,4,20,3,LearningTask,,,60.0839452551,3,2015_Mar_03_1245,,
Go,2,cross,yellow,0,0,0,5,1,6,14,6,2,5,21,0,LearningTask,,,60.0839452551,3,2015_Mar_03_1245,,
Go,2,cross,white,0,0,0,5,1,6,14,6,2,6,22,1,LearningTask,,,60.0839452551,3,2015_Mar_03_1245,,
Go,2,cross,green,0,0,0,5,1,6,14,6,2,7,23,4,LearningTask,,,60.0839452551,3,2015_Mar_03_1245,,
Go,2,cross,green,0,0,0,5,1,6,14,6,3,0,24,4,LearningTask,,,60.0839452551,3,2015_Mar_03_1245,,
Go,2,cross,orange,0,0,0,5,1,6,14,6,3,1,25,2,LearningTask,,,60.0839452551,3,2015_Mar_03_1245,,
Go,2,cross,magenta,0,0,0,5,1,6,14,6,3,2,26,3,LearningTask,,,60.0839452551,3,2015_Mar_03_1245,,
Go,2,cross,yellow,0,0,0,5,1,6,14,6,3,3,27,0,LearningTask,,,60.0839452551,3,2015_Mar_03_1245,,
Go,2,cross,cyan,0,0,0,5,1,6,14,6,3,4,28,6,LearningTask,,,60.0839452551,3,2015_Mar_03_1245,,
Go,2,cross,gray,0,0,0,5,1,6,14,6,3,5,29,5,LearningTask,,,60.0839452551,3,2015_Mar_03_1245,,
Go,2,cross,white,0,0,0,5,1,6,14,6,3,6,30,1,LearningTask,,,60.0839452551,3,2015_Mar_03_1245,,
Go,2,cross,blue,0,0,0,5,1,6,14,6,3,7,31,7,LearningTask,,,60.0839452551,3,2015_Mar_03_1245,,
Go,2,cross,gray,0,0,0,5,1,6,14,6,4,0,32,5,LearningTask,,,60.0839452551,3,2015_Mar_03_1245,,
Go,2,cross,green,0,0,0,5,1,6,14,6,4,1,33,4,LearningTask,,,60.0839452551,3,2015_Mar_03_1245,,
Go,2,cross,magenta,0,0,0,5,1,6,14,6,4,2,34,3,LearningTask,,,60.0839452551,3,2015_Mar_03_1245,,
Go,2,cross,cyan,0,0,0,5,1,6,14,6,4,3,35,6,LearningTask,,,60.0839452551,3,2015_Mar_03_1245,,
Go,2,cross,blue,0,0,0,5,1,6,14,6,4,4,36,7,LearningTask,,,60.0839452551,3,2015_Mar_03_1245,,
Go,2,cross,yellow,0,0,0,5,1,6,14,6,4,5,37,0,LearningTask,,,60.0839452551,3,2015_Mar_03_1245,,
Go,2,cross,orange,0,0,0,5,1,6,14,6,4,6,38,2,LearningTask,,,60.0839452551,3,2015_Mar_03_1245,,
Go,2,cross,white,0,0,0,5,1,6,14,6,4,7,39,1,LearningTask,,,60.0839452551,3,2015_Mar_03_1245,,
Go,2,cross,magenta,0,0,0,5,1,6,14,6,5,0,40,3,LearningTask,,,60.0839452551,3,2015_Mar_03_1245,,
Go,2,cross,orange,0,0,0,5,1,6,14,6,5,1,41,2,LearningTask,,,60.0839452551,3,2015_Mar_03_1245,,
Go,2,cross,yellow,0,0,0,5,1,6,14,6,5,2,42,0,LearningTask,,,60.0839452551,3,2015_Mar_03_1245,,
Go,2,cross,gray,0,0,0,5,1,6,14,6,5,3,43,5,LearningTask,,,60.0839452551,3,2015_Mar_03_1245,,
Go,2,cross,blue,0,0,0,5,1,6,14,6,5,4,44,7,LearningTask,,,60.0839452551,3,2015_Mar_03_1245,,
Go,2,cross,cyan,0,0,0,5,1,6,14,6,5,5,45,6,LearningTask,,,60.0839452551,3,2015_Mar_03_1245,,
Go,2,cross,green,0,0,0,5,1,6,14,6,5,6,46,4,LearningTask,,,60.0839452551,3,2015_Mar_03_1245,,
Go,2,cross,white,0,0,0,5,1,6,14,6,5,7,47,1,LearningTask,,,60.0839452551,3,2015_Mar_03_1245,,
Go,2,cross,orange,0,0,0,5,1,6,14,6,6,0,48,2,LearningTask,,,60.0839452551,3,2015_Mar_03_1245,,
Go,2,cross,green,0,0,0,5,1,6,14,6,6,1,49,4,LearningTask,,,60.0839452551,3,2015_Mar_03_1245,,
Go,2,cross,blue,0,0,0,5,1,6,14,6,6,2,50,7,LearningTask,,,60.0839452551,3,2015_Mar_03_1245,,
Go,2,cross,cyan,0,0,0,5,1,6,14,6,6,3,51,6,LearningTask,,,60.0839452551,3,2015_Mar_03_1245,,
Go,2,cross,yellow,0,0,0,5,1,6,14,6,6,4,52,0,LearningTask,,,60.0839452551,3,2015_Mar_03_1245,,
Go,2,cross,white,0,0,0,5,1,6,14,6,6,5,53,1,LearningTask,,,60.0839452551,3,2015_Mar_03_1245,,
Go,2,cross,gray,0,0,0,5,1,6,14,6,6,6,54,5,LearningTask,,,60.0839452551,3,2015_Mar_03_1245,,
Go,2,cross,magenta,0,0,0,5,1,6,14,6,6,7,55,3,LearningTask,,,60.0839452551,3,2015_Mar_03_1245,,
Go,2,cross,green,0,0,0,5,1,6,14,6,7,0,56,4,LearningTask,,,60.0839452551,3,2015_Mar_03_1245,,
Go,2,cross,gray,0,0,0,5,1,6,14,6,7,1,57,5,LearningTask,,,60.0839452551,3,2015_Mar_03_1245,,
Go,2,cross,magenta,0,0,0,5,1,6,14,6,7,2,58,3,LearningTask,,,60.0839452551,3,2015_Mar_03_1245,,
Go,2,cross,cyan,0,0,0,5,1,6,14,6,7,3,59,6,LearningTask,,,60.0839452551,3,2015_Mar_03_1245,,
Go,2,cross,blue,0,0,0,5,1,6,14,6,7,4,60,7,LearningTask,,,60.0839452551,3,2015_Mar_03_1245,,
Go,2,cross,orange,0,0,0,5,1,6,14,6,7,5,61,2,LearningTask,,,60.0839452551,3,2015_Mar_03_1245,,
Go,2,cross,white,0,0,0,5,1,6,14,6,7,6,62,1,LearningTask,,,60.0839452551,3,2015_Mar_03_1245,,
Go,2,cross,yellow,0,0,0,5,1,6,14,6,7,7,63,0,LearningTask,,,60.0839452551,3,2015_Mar_03_1245,,
Go,2,cross,,0,0,0,5,1,6,14,6,,,,,LearningTask,,,60.0839452551,3,2015_Mar_03_1245,,
Go,2,triangle,white,0,0,0,5,1,7,15,0,0,0,0,1,LearningTask,,,60.0839452551,3,2015_Mar_03_1245,,
Go,2,triangle,magenta,0,0,0,5,1,7,15,0,0,1,1,3,LearningTask,,,60.0839452551,3,2015_Mar_03_1245,,
Go,2,triangle,cyan,0,0,0,5,1,7,15,0,0,2,2,6,LearningTask,,,60.0839452551,3,2015_Mar_03_1245,,
Go,2,triangle,yellow,0,0,0,5,1,7,15,0,0,3,3,0,LearningTask,,,60.0839452551,3,2015_Mar_03_1245,,
Go,2,triangle,gray,0,0,0,5,1,7,15,0,0,4,4,5,LearningTask,,,60.0839452551,3,2015_Mar_03_1245,,
Go,2,triangle,green,0,0,0,5,1,7,15,0,0,5,5,4,LearningTask,,,60.0839452551,3,2015_Mar_03_1245,,
Go,2,triangle,orange,0,0,0,5,1,7,15,0,0,6,6,2,LearningTask,,,60.0839452551,3,2015_Mar_03_1245,,
Go,2,triangle,blue,0,0,0,5,1,7,15,0,0,7,7,7,LearningTask,,,60.0839452551,3,2015_Mar_03_1245,,
Go,2,triangle,magenta,0,0,0,5,1,7,15,0,1,0,8,3,LearningTask,,,60.0839452551,3,2015_Mar_03_1245,,
Go,2,triangle,cyan,0,0,0,5,1,7,15,0,1,1,9,6,LearningTask,,,60.0839452551,3,2015_Mar_03_1245,,
Go,2,triangle,green,0,0,0,5,1,7,15,0,1,2,10,4,LearningTask,,,60.0839452551,3,2015_Mar_03_1245,,
Go,2,triangle,white,0,0,0,5,1,7,15,0,1,3,11,1,LearningTask,,,60.0839452551,3,2015_Mar_03_1245,,
Go,2,triangle,gray,0,0,0,5,1,7,15,0,1,4,12,5,LearningTask,,,60.0839452551,3,2015_Mar_03_1245,,
Go,2,triangle,orange,0,0,0,5,1,7,15,0,1,5,13,2,LearningTask,,,60.0839452551,3,2015_Mar_03_1245,,
Go,2,triangle,yellow,0,0,0,5,1,7,15,0,1,6,14,0,LearningTask,,,60.0839452551,3,2015_Mar_03_1245,,
Go,2,triangle,blue,0,0,0,5,1,7,15,0,1,7,15,7,LearningTask,,,60.0839452551,3,2015_Mar_03_1245,,
Go,2,triangle,cyan,0,0,0,5,1,7,15,0,2,0,16,6,LearningTask,,,60.0839452551,3,2015_Mar_03_1245,,
Go,2,triangle,orange,0,0,0,5,1,7,15,0,2,1,17,2,LearningTask,,,60.0839452551,3,2015_Mar_03_1245,,
Go,2,triangle,yellow,0,0,0,5,1,7,15,0,2,2,18,0,LearningTask,,,60.0839452551,3,2015_Mar_03_1245,,
Go,2,triangle,green,0,0,0,5,1,7,15,0,2,3,19,4,LearningTask,,,60.0839452551,3,2015_Mar_03_1245,,
Go,2,triangle,blue,0,0,0,5,1,7,15,0,2,4,20,7,LearningTask,,,60.0839452551,3,2015_Mar_03_1245,,
Go,2,triangle,magenta,0,0,0,5,1,7,15,0,2,5,21,3,LearningTask,,,60.0839452551,3,2015_Mar_03_1245,,
Go,2,triangle,gray,0,0,0,5,1,7,15,0,2,6,22,5,LearningTask,,,60.0839452551,3,2015_Mar_03_1245,,
Go,2,triangle,white,0,0,0,5,1,7,15,0,2,7,23,1,LearningTask,,,60.0839452551,3,2015_Mar_03_1245,,
Go,2,triangle,green,0,0,0,5,1,7,15,0,3,0,24,4,LearningTask,,,60.0839452551,3,2015_Mar_03_1245,,
Go,2,triangle,gray,0,0,0,5,1,7,15,0,3,1,25,5,LearningTask,,,60.0839452551,3,2015_Mar_03_1245,,
Go,2,triangle,white,0,0,0,5,1,7,15,0,3,2,26,1,LearningTask,,,60.0839452551,3,2015_Mar_03_1245,,
Go,2,triangle,blue,0,0,0,5,1,7,15,0,3,3,27,7,LearningTask,,,60.0839452551,3,2015_Mar_03_1245,,
Go,2,triangle,orange,0,0,0,5,1,7,15,0,3,4,28,2,LearningTask,,,60.0839452551,3,2015_Mar_03_1245,,
Go,2,triangle,cyan,0,0,0,5,1,7,15,0,3,5,29,6,LearningTask,,,60.0839452551,3,2015_Mar_03_1245,,
Go,2,triangle,magenta,0,0,0,5,1,7,15,0,3,6,30,3,LearningTask,,,60.0839452551,3,2015_Mar_03_1245,,
Go,2,triangle,yellow,0,0,0,5,1,7,15,0,3,7,31,0,LearningTask,,,60.0839452551,3,2015_Mar_03_1245,,
Go,2,triangle,blue,0,0,0,5,1,7,15,0,4,0,32,7,LearningTask,,,60.0839452551,3,2015_Mar_03_1245,,
Go,2,triangle,green,0,0,0,5,1,7,15,0,4,1,33,4,LearningTask,,,60.0839452551,3,2015_Mar_03_1245,,
Go,2,triangle,cyan,0,0,0,5,1,7,15,0,4,2,34,6,LearningTask,,,60.0839452551,3,2015_Mar_03_1245,,
Go,2,triangle,yellow,0,0,0,5,1,7,15,0,4,3,35,0,LearningTask,,,60.0839452551,3,2015_Mar_03_1245,,
Go,2,triangle,white,0,0,0,5,1,7,15,0,4,4,36,1,LearningTask,,,60.0839452551,3,2015_Mar_03_1245,,
Go,2,triangle,orange,0,0,0,5,1,7,15,0,4,5,37,2,LearningTask,,,60.0839452551,3,2015_Mar_03_1245,,
Go,2,triangle,magenta,0,0,0,5,1,7,15,0,4,6,38,3,LearningTask,,,60.0839452551,3,2015_Mar_03_1245,,
Go,2,triangle,gray,0,0,0,5,1,7,15,0,4,7,39,5,LearningTask,,,60.0839452551,3,2015_Mar_03_1245,,
Go,2,triangle,yellow,0,0,0,5,1,7,15,0,5,0,40,0,LearningTask,,,60.0839452551,3,2015_Mar_03_1245,,
Go,2,triangle,magenta,0,0,0,5,1,7,15,0,5,1,41,3,LearningTask,,,60.0839452551,3,2015_Mar_03_1245,,
Go,2,triangle,blue,0,0,0,5,1,7,15,0,5,2,42,7,LearningTask,,,60.0839452551,3,2015_Mar_03_1245,,
Go,2,triangle,orange,0,0,0,5,1,7,15,0,5,3,43,2,LearningTask,,,60.0839452551,3,2015_Mar_03_1245,,
Go,2,triangle,gray,0,0,0,5,1,7,15,0,5,4,44,5,LearningTask,,,60.0839452551,3,2015_Mar_03_1245,,
Go,2,triangle,green,0,0,0,5,1,7,15,0,5,5,45,4,LearningTask,,,60.0839452551,3,2015_Mar_03_1245,,
Go,2,triangle,white,0,0,0,5,1,7,15,0,5,6,46,1,LearningTask,,,60.0839452551,3,2015_Mar_03_1245,,
Go,2,triangle,cyan,0,0,0,5,1,7,15,0,5,7,47,6,LearningTask,,,60.0839452551,3,2015_Mar_03_1245,,
Go,2,triangle,white,0,0,0,5,1,7,15,0,6,0,48,1,LearningTask,,,60.0839452551,3,2015_Mar_03_1245,,
Go,2,triangle,orange,0,0,0,5,1,7,15,0,6,1,49,2,LearningTask,,,60.0839452551,3,2015_Mar_03_1245,,
Go,2,triangle,gray,0,0,0,5,1,7,15,0,6,2,50,5,LearningTask,,,60.0839452551,3,2015_Mar_03_1245,,
Go,2,triangle,cyan,0,0,0,5,1,7,15,0,6,3,51,6,LearningTask,,,60.0839452551,3,2015_Mar_03_1245,,
Go,2,triangle,blue,0,0,0,5,1,7,15,0,6,4,52,7,LearningTask,,,60.0839452551,3,2015_Mar_03_1245,,
Go,2,triangle,yellow,0,0,0,5,1,7,15,0,6,5,53,0,LearningTask,,,60.0839452551,3,2015_Mar_03_1245,,
Go,2,triangle,green,0,0,0,5,1,7,15,0,6,6,54,4,LearningTask,,,60.0839452551,3,2015_Mar_03_1245,,
Go,2,triangle,magenta,0,0,0,5,1,7,15,0,6,7,55,3,LearningTask,,,60.0839452551,3,2015_Mar_03_1245,,
Go,2,triangle,blue,0,0,0,5,1,7,15,0,7,0,56,7,LearningTask,,,60.0839452551,3,2015_Mar_03_1245,,
Go,2,triangle,cyan,0,0,0,5,1,7,15,0,7,1,57,6,LearningTask,,,60.0839452551,3,2015_Mar_03_1245,,
Go,2,triangle,gray,0,0,0,5,1,7,15,0,7,2,58,5,LearningTask,,,60.0839452551,3,2015_Mar_03_1245,,
Go,2,triangle,green,0,0,0,5,1,7,15,0,7,3,59,4,LearningTask,,,60.0839452551,3,2015_Mar_03_1245,,
Go,2,triangle,magenta,0,0,0,5,1,7,15,0,7,4,60,3,LearningTask,,,60.0839452551,3,2015_Mar_03_1245,,
Go,2,triangle,white,0,0,0,5,1,7,15,0,7,5,61,1,LearningTask,,,60.0839452551,3,2015_Mar_03_1245,,
Go,2,triangle,orange,0,0,0,5,1,7,15,0,7,6,62,2,LearningTask,,,60.0839452551,3,2015_Mar_03_1245,,
Go,2,triangle,yellow,0,0,0,5,1,7,15,0,7,7,63,0,LearningTask,,,60.0839452551,3,2015_Mar_03_1245,,
Go,2,triangle,,0,0,0,5,1,7,15,0,,,,,LearningTask,,,60.0839452551,3,2015_Mar_03_1245,,
Go,2,hexagon,gray,0,0,0,5,2,0,16,4,0,0,0,5,LearningTask,,,60.0839452551,3,2015_Mar_03_1245,,
Go,2,hexagon,magenta,0,0,0,5,2,0,16,4,0,1,1,3,LearningTask,,,60.0839452551,3,2015_Mar_03_1245,,
Go,2,hexagon,orange,0,0,0,5,2,0,16,4,0,2,2,2,LearningTask,,,60.0839452551,3,2015_Mar_03_1245,,
Go,2,hexagon,cyan,0,0,0,5,2,0,16,4,0,3,3,6,LearningTask,,,60.0839452551,3,2015_Mar_03_1245,,
Go,2,hexagon,white,0,0,0,5,2,0,16,4,0,4,4,1,LearningTask,,,60.0839452551,3,2015_Mar_03_1245,,
Go,2,hexagon,yellow,0,0,0,5,2,0,16,4,0,5,5,0,LearningTask,,,60.0839452551,3,2015_Mar_03_1245,,
Go,2,hexagon,blue,0,0,0,5,2,0,16,4,0,6,6,7,LearningTask,,,60.0839452551,3,2015_Mar_03_1245,,
Go,2,hexagon,green,0,0,0,5,2,0,16,4,0,7,7,4,LearningTask,,,60.0839452551,3,2015_Mar_03_1245,,
Go,2,hexagon,white,0,0,0,5,2,0,16,4,1,0,8,1,LearningTask,,,60.0839452551,3,2015_Mar_03_1245,,
Go,2,hexagon,gray,0,0,0,5,2,0,16,4,1,1,9,5,LearningTask,,,60.0839452551,3,2015_Mar_03_1245,,
Go,2,hexagon,magenta,0,0,0,5,2,0,16,4,1,2,10,3,LearningTask,,,60.0839452551,3,2015_Mar_03_1245,,
Go,2,hexagon,blue,0,0,0,5,2,0,16,4,1,3,11,7,LearningTask,,,60.0839452551,3,2015_Mar_03_1245,,
Go,2,hexagon,yellow,0,0,0,5,2,0,16,4,1,4,12,0,LearningTask,,,60.0839452551,3,2015_Mar_03_1245,,
