trials.thisRepN,trials.thisTrialN,trials.thisN,trials.thisIndex,key_resp_2.keys,key_resp_2.corr,key_resp_2.rt,jitterTime,date,frameRate,expName,session,participant,
0,0,0,0,space,0,1.15710091591,0.9,2015_Jun_02_1509,59.9351535495,DondersVisual,002,101,
1,0,1,0,space,0,0.883210897446,0.63,2015_Jun_02_1509,59.9351535495,DondersVisual,002,101,
2,0,2,0,space,0,1.06729507446,0.81,2015_Jun_02_1509,59.9351535495,DondersVisual,002,101,
3,0,3,0,space,0,1.06753015518,0.81,2015_Jun_02_1509,59.9351535495,DondersVisual,002,101,
4,0,4,0,space,0,1.20133900642,0.95,2015_Jun_02_1509,59.9351535495,DondersVisual,002,101,
5,0,5,0,space,0,0.900554180145,0.65,2015_Jun_02_1509,59.9351535495,DondersVisual,002,101,
6,0,6,0,space,0,0.98419713974,0.75,2015_Jun_02_1509,59.9351535495,DondersVisual,002,101,
7,0,7,0,space,0,0.883768081665,0.59,2015_Jun_02_1509,59.9351535495,DondersVisual,002,101,
8,0,8,0,space,0,0.984138011932,0.72,2015_Jun_02_1509,59.9351535495,DondersVisual,002,101,
9,0,9,0,space,0,0.849873065948,0.61,2015_Jun_02_1509,59.9351535495,DondersVisual,002,101,
10,0,10,0,space,0,0.883965015411,0.95,2015_Jun_02_1509,59.9351535495,DondersVisual,002,101,
11,0,11,0,space,0,0.883572816849,0.58,2015_Jun_02_1509,59.9351535495,DondersVisual,002,101,
12,0,12,0,space,0,1.03369116783,0.78,2015_Jun_02_1509,59.9351535495,DondersVisual,002,101,
13,0,13,0,space,0,0.933787822723,0.66,2015_Jun_02_1509,59.9351535495,DondersVisual,002,101,
14,0,14,0,space,0,0.850911140442,0.58,2015_Jun_02_1509,59.9351535495,DondersVisual,002,101,
15,0,15,0,space,0,1.08358502388,0.82,2015_Jun_02_1509,59.9351535495,DondersVisual,002,101,
16,0,16,0,space,0,0.983618021011,0.72,2015_Jun_02_1509,59.9351535495,DondersVisual,002,101,
17,0,17,0,space,0,1.23403906822,0.98,2015_Jun_02_1509,59.9351535495,DondersVisual,002,101,
18,0,18,0,space,0,0.817175149918,0.51,2015_Jun_02_1509,59.9351535495,DondersVisual,002,101,
19,0,19,0,space,0,0.950130939484,0.69,2015_Jun_02_1509,59.9351535495,DondersVisual,002,101,
20,0,20,0,space,0,1.05103683472,0.96,2015_Jun_02_1509,59.9351535495,DondersVisual,002,101,
21,0,21,0,space,0,0.800263881683,0.5,2015_Jun_02_1509,59.9351535495,DondersVisual,002,101,
22,0,22,0,space,0,0.983757019043,0.72,2015_Jun_02_1509,59.9351535495,DondersVisual,002,101,
23,0,23,0,space,0,0.901176214218,0.61,2015_Jun_02_1509,59.9351535495,DondersVisual,002,101,
24,0,24,0,space,0,0.767359018326,0.5,2015_Jun_02_1509,59.9351535495,DondersVisual,002,101,
25,0,25,0,space,0,0.800589084625,0.52,2015_Jun_02_1509,59.9351535495,DondersVisual,002,101,
26,0,26,0,space,0,0.833256006241,0.58,2015_Jun_02_1509,59.9351535495,DondersVisual,002,101,
27,0,27,0,space,0,0.984378099442,0.82,2015_Jun_02_1509,59.9351535495,DondersVisual,002,101,
28,0,28,0,space,0,0.783586025238,0.51,2015_Jun_02_1509,59.9351535495,DondersVisual,002,101,
29,0,29,0,space,0,0.850677013397,0.59,2015_Jun_02_1509,59.9351535495,DondersVisual,002,101,
30,0,30,0,space,0,0.86679816246,0.86,2015_Jun_02_1509,59.9351535495,DondersVisual,002,101,
31,0,31,0,space,0,1.18385720253,0.9,2015_Jun_02_1509,59.9351535495,DondersVisual,002,101,
32,0,32,0,space,0,1.0340089798,0.8,2015_Jun_02_1509,59.9351535495,DondersVisual,002,101,
33,0,33,0,space,0,0.933789014816,0.67,2015_Jun_02_1509,59.9351535495,DondersVisual,002,101,
34,0,34,0,space,0,0.950726032257,0.71,2015_Jun_02_1509,59.9351535495,DondersVisual,002,101,
35,0,35,0,space,0,0.966784954071,0.92,2015_Jun_02_1509,59.9351535495,DondersVisual,002,101,
36,0,36,0,space,0,1.23376703262,0.91,2015_Jun_02_1509,59.9351535495,DondersVisual,002,101,
37,0,37,0,space,0,0.950495004654,0.7,2015_Jun_02_1509,59.9351535495,DondersVisual,002,101,
38,0,38,0,space,0,0.933483123779,0.6,2015_Jun_02_1509,59.9351535495,DondersVisual,002,101,
39,0,39,0,space,0,0.850660085678,0.61,2015_Jun_02_1509,59.9351535495,DondersVisual,002,101,
40,0,40,0,space,0,1.15049791336,0.88,2015_Jun_02_1509,59.9351535495,DondersVisual,002,101,
41,0,41,0,space,0,0.883975982666,0.6,2015_Jun_02_1509,59.9351535495,DondersVisual,002,101,
42,0,42,0,space,0,0.867516040802,0.59,2015_Jun_02_1509,59.9351535495,DondersVisual,002,101,
43,0,43,0,space,0,0.96698307991,0.7,2015_Jun_02_1509,59.9351535495,DondersVisual,002,101,
44,0,44,0,space,0,1.01710915565,0.77,2015_Jun_02_1509,59.9351535495,DondersVisual,002,101,
45,0,45,0,space,0,1.10076093674,0.84,2015_Jun_02_1509,59.9351535495,DondersVisual,002,101,
46,0,46,0,space,0,0.867181777954,0.62,2015_Jun_02_1509,59.9351535495,DondersVisual,002,101,
47,0,47,0,space,0,0.783901929855,0.5,2015_Jun_02_1509,59.9351535495,DondersVisual,002,101,
48,0,48,0,space,0,1.23442006111,0.98,2015_Jun_02_1509,59.9351535495,DondersVisual,002,101,
49,0,49,0,space,0,0.817121982574,0.58,2015_Jun_02_1509,59.9351535495,DondersVisual,002,101,
50,0,50,0,space,0,1.05133891106,0.8,2015_Jun_02_1509,59.9351535495,DondersVisual,002,101,
51,0,51,0,space,0,0.883634805679,0.62,2015_Jun_02_1509,59.9351535495,DondersVisual,002,101,
52,0,52,0,space,0,0.850557088852,0.61,2015_Jun_02_1509,59.9351535495,DondersVisual,002,101,
53,0,53,0,space,0,1.10069990158,0.89,2015_Jun_02_1509,59.9351535495,DondersVisual,002,101,
54,0,54,0,space,0,1.00028204918,0.76,2015_Jun_02_1509,59.9351535495,DondersVisual,002,101,
55,0,55,0,space,0,1.18417906761,0.93,2015_Jun_02_1509,59.9351535495,DondersVisual,002,101,
56,0,56,0,space,0,0.834010124207,0.56,2015_Jun_02_1509,59.9351535495,DondersVisual,002,101,
57,0,57,0,space,0,0.817095994949,0.57,2015_Jun_02_1509,59.9351535495,DondersVisual,002,101,
58,0,58,0,space,0,0.833528995514,0.58,2015_Jun_02_1509,59.9351535495,DondersVisual,002,101,
59,0,59,0,space,0,0.967580080032,0.72,2015_Jun_02_1509,59.9351535495,DondersVisual,002,101,
60,0,60,0,space,0,1.00039505959,0.74,2015_Jun_02_1509,59.9351535495,DondersVisual,002,101,
61,0,61,0,space,0,0.800500869751,0.7,2015_Jun_02_1509,59.9351535495,DondersVisual,002,101,
62,0,62,0,space,0,0.900887012482,0.64,2015_Jun_02_1509,59.9351535495,DondersVisual,002,101,
63,0,63,0,space,0,1.06741094589,0.83,2015_Jun_02_1509,59.9351535495,DondersVisual,002,101,
64,0,64,0,space,0,0.950299024582,0.7,2015_Jun_02_1509,59.9351535495,DondersVisual,002,101,
65,0,65,0,space,0,0.934448003769,0.72,2015_Jun_02_1509,59.9351535495,DondersVisual,002,101,
66,0,66,0,space,0,0.883563041687,0.63,2015_Jun_02_1509,59.9351535495,DondersVisual,002,101,
67,0,67,0,space,0,1.10031700134,0.98,2015_Jun_02_1509,59.9351535495,DondersVisual,002,101,
68,0,68,0,space,0,0.883602142334,0.57,2015_Jun_02_1509,59.9351535495,DondersVisual,002,101,
69,0,69,0,space,0,1.11732816696,0.86,2015_Jun_02_1509,59.9351535495,DondersVisual,002,101,
70,0,70,0,space,0,0.817040920258,0.52,2015_Jun_02_1509,59.9351535495,DondersVisual,002,101,
71,0,71,0,space,0,0.833585977554,0.55,2015_Jun_02_1509,59.9351535495,DondersVisual,002,101,
72,0,72,0,space,0,1.20062112808,0.95,2015_Jun_02_1509,59.9351535495,DondersVisual,002,101,
73,0,73,0,space,0,0.917070865631,0.54,2015_Jun_02_1509,59.9351535495,DondersVisual,002,101,
74,0,74,0,space,0,0.950727939606,0.65,2015_Jun_02_1509,59.9351535495,DondersVisual,002,101,
75,0,75,0,space,0,0.783950805664,0.53,2015_Jun_02_1509,59.9351535495,DondersVisual,002,101,
76,0,76,0,space,0,1.25075006485,0.98,2015_Jun_02_1509,59.9351535495,DondersVisual,002,101,
77,0,77,0,space,0,1.05051803589,0.78,2015_Jun_02_1509,59.9351535495,DondersVisual,002,101,
78,0,78,0,space,0,1.01804494858,0.76,2015_Jun_02_1509,59.9351535495,DondersVisual,002,101,
79,0,79,0,space,0,1.08397507668,0.79,2015_Jun_02_1509,59.9351535495,DondersVisual,002,101,
80,0,80,0,space,0,1.08375787735,0.8,2015_Jun_02_1509,59.9351535495,DondersVisual,002,101,
81,0,81,0,space,0,1.10079693794,0.84,2015_Jun_02_1509,59.9351535495,DondersVisual,002,101,
82,0,82,0,space,0,0.967221021652,0.71,2015_Jun_02_1509,59.9351535495,DondersVisual,002,101,
83,0,83,0,space,0,0.917136907578,0.64,2015_Jun_02_1509,59.9351535495,DondersVisual,002,101,
84,0,84,0,space,0,1.05089211464,0.79,2015_Jun_02_1509,59.9351535495,DondersVisual,002,101,
85,0,85,0,space,0,0.867177009583,0.59,2015_Jun_02_1509,59.9351535495,DondersVisual,002,101,
86,0,86,0,space,0,0.784415960312,0.52,2015_Jun_02_1509,59.9351535495,DondersVisual,002,101,
87,0,87,0,space,0,1.00050783157,0.74,2015_Jun_02_1509,59.9351535495,DondersVisual,002,101,
88,0,88,0,space,0,1.10099005699,0.88,2015_Jun_02_1509,59.9351535495,DondersVisual,002,101,
89,0,89,0,space,0,0.967326164246,0.67,2015_Jun_02_1509,59.9351535495,DondersVisual,002,101,
90,0,90,0,space,0,1.01695013046,0.74,2015_Jun_02_1509,59.9351535495,DondersVisual,002,101,
91,0,91,0,space,0,1.10074496269,0.85,2015_Jun_02_1509,59.9351535495,DondersVisual,002,101,
92,0,92,0,space,0,0.899976968765,0.62,2015_Jun_02_1509,59.9351535495,DondersVisual,002,101,
93,0,93,0,space,0,1.18396997452,0.95,2015_Jun_02_1509,59.9351535495,DondersVisual,002,101,
94,0,94,0,space,0,0.817284107208,0.5,2015_Jun_02_1509,59.9351535495,DondersVisual,002,101,
95,0,95,0,space,0,1.05042600632,0.81,2015_Jun_02_1509,59.9351535495,DondersVisual,002,101,
96,0,96,0,space,0,0.85079407692,0.59,2015_Jun_02_1509,59.9351535495,DondersVisual,002,101,
97,0,97,0,space,0,0.917376041412,0.64,2015_Jun_02_1509,59.9351535495,DondersVisual,002,101,
98,0,98,0,space,0,0.950881958008,0.61,2015_Jun_02_1509,59.9351535495,DondersVisual,002,101,
99,0,99,0,space,0,0.934195995331,0.65,2015_Jun_02_1509,59.9351535495,DondersVisual,002,101,
