trials.thisRepN,trials.thisTrialN,trials.thisN,trials.thisIndex,key_resp_2.keys,key_resp_2.corr,key_resp_2.rt,jitterTime,date,frameRate,expName,session,participant,
0,0,0,0,space,0,1.06373691559,0.73,2015_Jun_02_1531,59.6508813298,DondersAuditory2,002,104,
1,0,1,0,space,0,1.0671980381,0.75,2015_Jun_02_1531,59.6508813298,DondersAuditory2,002,104,
2,0,2,0,space,0,1.10083603859,0.81,2015_Jun_02_1531,59.6508813298,DondersAuditory2,002,104,
3,0,3,0,space,0,0.950309038162,0.69,2015_Jun_02_1531,59.6508813298,DondersAuditory2,002,104,
4,0,4,0,space,0,1.30089497566,0.87,2015_Jun_02_1531,59.6508813298,DondersAuditory2,002,104,
5,0,5,0,space,0,1.25096321106,0.98,2015_Jun_02_1531,59.6508813298,DondersAuditory2,002,104,
6,0,6,0,space,0,1.10046291351,0.77,2015_Jun_02_1531,59.6508813298,DondersAuditory2,002,104,
7,0,7,0,space,0,1.00115394592,0.68,2015_Jun_02_1531,59.6508813298,DondersAuditory2,002,104,
8,0,8,0,space,0,1.10073781013,0.9,2015_Jun_02_1531,59.6508813298,DondersAuditory2,002,104,
9,0,9,0,space,0,1.16723585129,0.89,2015_Jun_02_1531,59.6508813298,DondersAuditory2,002,104,
10,0,10,0,space,0,0.867012023926,0.58,2015_Jun_02_1531,59.6508813298,DondersAuditory2,002,104,
11,0,11,0,space,0,0.900675058365,0.63,2015_Jun_02_1531,59.6508813298,DondersAuditory2,002,104,
12,0,12,0,space,0,1.06742405891,0.77,2015_Jun_02_1531,59.6508813298,DondersAuditory2,002,104,
13,0,13,0,space,0,0.866940021515,0.61,2015_Jun_02_1531,59.6508813298,DondersAuditory2,002,104,
14,0,14,0,space,0,0.850387096405,0.55,2015_Jun_02_1531,59.6508813298,DondersAuditory2,002,104,
15,0,15,0,space,0,0.833597898483,0.6,2015_Jun_02_1531,59.6508813298,DondersAuditory2,002,104,
16,0,16,0,space,0,1.15029597282,0.9,2015_Jun_02_1531,59.6508813298,DondersAuditory2,002,104,
17,0,17,0,space,0,0.967545986176,0.67,2015_Jun_02_1531,59.6508813298,DondersAuditory2,002,104,
18,0,18,0,space,0,0.850031852722,0.61,2015_Jun_02_1531,59.6508813298,DondersAuditory2,002,104,
19,0,19,0,space,0,0.950424909592,0.66,2015_Jun_02_1531,59.6508813298,DondersAuditory2,002,104,
20,0,20,0,space,0,1.03403902054,0.77,2015_Jun_02_1531,59.6508813298,DondersAuditory2,002,104,
21,0,21,0,space,0,1.00061106682,0.71,2015_Jun_02_1531,59.6508813298,DondersAuditory2,002,104,
22,0,22,0,space,0,1.15063095093,0.79,2015_Jun_02_1531,59.6508813298,DondersAuditory2,002,104,
23,0,23,0,space,0,0.917598009109,0.59,2015_Jun_02_1531,59.6508813298,DondersAuditory2,002,104,
24,0,24,0,space,0,0.916882038116,0.66,2015_Jun_02_1531,59.6508813298,DondersAuditory2,002,104,
25,0,25,0,space,0,0.950670003891,0.64,2015_Jun_02_1531,59.6508813298,DondersAuditory2,002,104,
26,0,26,0,space,0,1.03378891945,0.74,2015_Jun_02_1531,59.6508813298,DondersAuditory2,002,104,
27,0,27,0,space,0,0.934290885925,0.68,2015_Jun_02_1531,59.6508813298,DondersAuditory2,002,104,
28,0,28,0,space,0,1.18450903893,0.91,2015_Jun_02_1531,59.6508813298,DondersAuditory2,002,104,
29,0,29,0,space,0,0.86697101593,0.55,2015_Jun_02_1531,59.6508813298,DondersAuditory2,002,104,
30,0,30,0,space,0,1.3171608448,0.98,2015_Jun_02_1531,59.6508813298,DondersAuditory2,002,104,
31,0,31,0,space,0,1.20048308372,0.95,2015_Jun_02_1531,59.6508813298,DondersAuditory2,002,104,
32,0,32,0,space,0,0.917060136795,0.82,2015_Jun_02_1531,59.6508813298,DondersAuditory2,002,104,
33,0,33,0,space,0,0.900822162628,0.56,2015_Jun_02_1531,59.6508813298,DondersAuditory2,002,104,
34,0,34,0,space,0,0.933753967285,0.66,2015_Jun_02_1531,59.6508813298,DondersAuditory2,002,104,
35,0,35,0,space,0,1.23424911499,0.95,2015_Jun_02_1531,59.6508813298,DondersAuditory2,002,104,
36,0,36,0,space,0,1.01788902283,0.72,2015_Jun_02_1531,59.6508813298,DondersAuditory2,002,104,
37,0,37,0,space,0,1.13455796242,0.84,2015_Jun_02_1531,59.6508813298,DondersAuditory2,002,104,
38,0,38,0,space,0,0.867388010025,0.61,2015_Jun_02_1531,59.6508813298,DondersAuditory2,002,104,
39,0,39,0,space,0,0.78334903717,0.51,2015_Jun_02_1531,59.6508813298,DondersAuditory2,002,104,
40,0,40,0,space,0,1.01699519157,0.7,2015_Jun_02_1531,59.6508813298,DondersAuditory2,002,104,
41,0,41,0,space,0,0.833358049393,0.54,2015_Jun_02_1531,59.6508813298,DondersAuditory2,002,104,
42,0,42,0,space,0,0.966597080231,0.68,2015_Jun_02_1531,59.6508813298,DondersAuditory2,002,104,
43,0,43,0,space,0,0.967142105103,0.69,2015_Jun_02_1531,59.6508813298,DondersAuditory2,002,104,
44,0,44,0,space,0,0.850463867188,0.61,2015_Jun_02_1531,59.6508813298,DondersAuditory2,002,104,
45,0,45,0,space,0,0.917171955109,0.68,2015_Jun_02_1531,59.6508813298,DondersAuditory2,002,104,
46,0,46,0,space,0,1.1507601738,0.85,2015_Jun_02_1531,59.6508813298,DondersAuditory2,002,104,
47,0,47,0,space,0,0.949911117554,0.58,2015_Jun_02_1531,59.6508813298,DondersAuditory2,002,104,
48,0,48,0,space,0,0.867084026337,0.58,2015_Jun_02_1531,59.6508813298,DondersAuditory2,002,104,
49,0,49,0,space,0,1.18374896049,0.97,2015_Jun_02_1531,59.6508813298,DondersAuditory2,002,104,
50,0,50,0,space,0,1.25075411797,0.99,2015_Jun_02_1531,59.6508813298,DondersAuditory2,002,104,
51,0,51,0,space,0,1.26823711395,0.94,2015_Jun_02_1531,59.6508813298,DondersAuditory2,002,104,
52,0,52,0,space,0,1.20041203499,0.85,2015_Jun_02_1531,59.6508813298,DondersAuditory2,002,104,
53,0,53,0,space,0,0.866963148117,0.63,2015_Jun_02_1531,59.6508813298,DondersAuditory2,002,104,
54,0,54,0,space,0,1.30090093613,0.99,2015_Jun_02_1531,59.6508813298,DondersAuditory2,002,104,
55,0,55,0,space,0,0.86701798439,0.58,2015_Jun_02_1531,59.6508813298,DondersAuditory2,002,104,
56,0,56,0,space,0,1.21718096733,0.94,2015_Jun_02_1531,59.6508813298,DondersAuditory2,002,104,
57,0,57,0,space,0,0.883762121201,0.54,2015_Jun_02_1531,59.6508813298,DondersAuditory2,002,104,
58,0,58,0,space,0,0.866831064224,0.57,2015_Jun_02_1531,59.6508813298,DondersAuditory2,002,104,
59,0,59,0,space,0,1.20119905472,0.89,2015_Jun_02_1531,59.6508813298,DondersAuditory2,002,104,
60,0,60,0,space,0,1.13465499878,0.81,2015_Jun_02_1531,59.6508813298,DondersAuditory2,002,104,
61,0,61,0,space,0,1.06727099419,0.72,2015_Jun_02_1531,59.6508813298,DondersAuditory2,002,104,
62,0,62,0,space,0,1.00091004372,0.71,2015_Jun_02_1531,59.6508813298,DondersAuditory2,002,104,
63,0,63,0,space,0,1.0164399147,0.78,2015_Jun_02_1531,59.6508813298,DondersAuditory2,002,104,
64,0,64,0,space,0,1.16730999947,0.85,2015_Jun_02_1531,59.6508813298,DondersAuditory2,002,104,
65,0,65,0,space,0,1.20106482506,0.92,2015_Jun_02_1531,59.6508813298,DondersAuditory2,002,104,
66,0,66,0,space,0,1.1511490345,0.99,2015_Jun_02_1531,59.6508813298,DondersAuditory2,002,104,
67,0,67,0,space,0,1.05044698715,0.77,2015_Jun_02_1531,59.6508813298,DondersAuditory2,002,104,
68,0,68,0,space,0,0.766702890396,0.52,2015_Jun_02_1531,59.6508813298,DondersAuditory2,002,104,
69,0,69,0,space,0,1.05058789253,0.78,2015_Jun_02_1531,59.6508813298,DondersAuditory2,002,104,
70,0,70,0,space,0,1.18463492393,0.93,2015_Jun_02_1531,59.6508813298,DondersAuditory2,002,104,
71,0,71,0,space,0,0.917582988739,0.6,2015_Jun_02_1531,59.6508813298,DondersAuditory2,002,104,
72,0,72,0,space,0,1.3004450798,0.99,2015_Jun_02_1531,59.6508813298,DondersAuditory2,002,104,
73,0,73,0,space,0,1.13402080536,0.84,2015_Jun_02_1531,59.6508813298,DondersAuditory2,002,104,
74,0,74,0,space,0,1.1338429451,0.82,2015_Jun_02_1531,59.6508813298,DondersAuditory2,002,104,
75,0,75,0,space,0,1.20067501068,0.92,2015_Jun_02_1531,59.6508813298,DondersAuditory2,002,104,
76,0,76,0,space,0,1.28465080261,0.94,2015_Jun_02_1531,59.6508813298,DondersAuditory2,002,104,
77,0,77,0,space,0,0.967479944229,0.65,2015_Jun_02_1531,59.6508813298,DondersAuditory2,002,104,
78,0,78,0,space,0,1.18388795853,0.91,2015_Jun_02_1531,59.6508813298,DondersAuditory2,002,104,
79,0,79,0,space,0,1.21772003174,0.9,2015_Jun_02_1531,59.6508813298,DondersAuditory2,002,104,
80,0,80,0,space,0,1.03415203094,0.72,2015_Jun_02_1531,59.6508813298,DondersAuditory2,002,104,
81,0,81,0,space,0,0.883726119995,0.6,2015_Jun_02_1531,59.6508813298,DondersAuditory2,002,104,
82,0,82,0,space,0,1.00048184395,0.7,2015_Jun_02_1531,59.6508813298,DondersAuditory2,002,104,
83,0,83,0,space,0,1.2509739399,0.95,2015_Jun_02_1531,59.6508813298,DondersAuditory2,002,104,
84,0,84,0,space,0,1.2008368969,0.96,2015_Jun_02_1531,59.6508813298,DondersAuditory2,002,104,
85,0,85,0,space,0,0.900377035141,0.6,2015_Jun_02_1531,59.6508813298,DondersAuditory2,002,104,
86,0,86,0,space,0,0.933899879456,0.69,2015_Jun_02_1531,59.6508813298,DondersAuditory2,002,104,
87,0,87,0,space,0,1.13432621956,0.85,2015_Jun_02_1531,59.6508813298,DondersAuditory2,002,104,
88,0,88,0,space,0,0.950182914734,0.66,2015_Jun_02_1531,59.6508813298,DondersAuditory2,002,104,
89,0,89,0,space,0,0.950380086899,0.7,2015_Jun_02_1531,59.6508813298,DondersAuditory2,002,104,
90,0,90,0,space,0,0.83355307579,0.59,2015_Jun_02_1531,59.6508813298,DondersAuditory2,002,104,
91,0,91,0,space,0,1.23443698883,0.96,2015_Jun_02_1531,59.6508813298,DondersAuditory2,002,104,
92,0,92,0,space,0,1.21785902977,0.93,2015_Jun_02_1531,59.6508813298,DondersAuditory2,002,104,
93,0,93,0,space,0,0.883679866791,0.6,2015_Jun_02_1531,59.6508813298,DondersAuditory2,002,104,
94,0,94,0,space,0,0.750319957733,0.5,2015_Jun_02_1531,59.6508813298,DondersAuditory2,002,104,
95,0,95,0,space,0,0.850740909576,0.54,2015_Jun_02_1531,59.6508813298,DondersAuditory2,002,104,
96,0,96,0,space,0,0.951052188873,0.66,2015_Jun_02_1531,59.6508813298,DondersAuditory2,002,104,
97,0,97,0,space,0,0.850389003754,0.58,2015_Jun_02_1531,59.6508813298,DondersAuditory2,002,104,
98,0,98,0,space,0,0.866992950439,0.58,2015_Jun_02_1531,59.6508813298,DondersAuditory2,002,104,
99,0,99,0,space,0,0.983644962311,0.83,2015_Jun_02_1531,59.6508813298,DondersAuditory2,002,104,
