trials.thisRepN,trials.thisTrialN,trials.thisN,trials.thisIndex,key_resp_2.keys,key_resp_2.corr,key_resp_2.rt,jitterTime,date,frameRate,expName,session,participant,
0,0,0,0,space,0,1.17227005959,0.96,2015_Jun_02_1437,59.9372947575,DondersAuditory,001,2,
1,0,1,0,space,0,0.783477067947,0.55,2015_Jun_02_1437,59.9372947575,DondersAuditory,001,2,
2,0,2,0,space,0,0.833467006683,0.93,2015_Jun_02_1437,59.9372947575,DondersAuditory,001,2,
3,0,3,0,space,0,1.06704092026,0.83,2015_Jun_02_1437,59.9372947575,DondersAuditory,001,2,
4,0,4,0,space,0,0.800034999847,0.5,2015_Jun_02_1437,59.9372947575,DondersAuditory,001,2,
5,0,5,0,space,0,0.734122037888,0.54,2015_Jun_02_1437,59.9372947575,DondersAuditory,001,2,
6,0,6,0,space,0,0.76694893837,0.53,2015_Jun_02_1437,59.9372947575,DondersAuditory,001,2,
7,0,7,0,space,0,1.10026097298,0.89,2015_Jun_02_1437,59.9372947575,DondersAuditory,001,2,
8,0,8,0,space,0,1.10073590279,0.87,2015_Jun_02_1437,59.9372947575,DondersAuditory,001,2,
9,0,9,0,space,0,0.850018978119,0.61,2015_Jun_02_1437,59.9372947575,DondersAuditory,001,2,
10,0,10,0,space,0,0.733420133591,0.5,2015_Jun_02_1437,59.9372947575,DondersAuditory,001,2,
11,0,11,0,space,0,1.15033698082,0.96,2015_Jun_02_1437,59.9372947575,DondersAuditory,001,2,
12,0,12,0,space,0,1.15075016022,0.96,2015_Jun_02_1437,59.9372947575,DondersAuditory,001,2,
13,0,13,0,space,0,0.883068084717,0.68,2015_Jun_02_1437,59.9372947575,DondersAuditory,001,2,
14,0,14,0,space,0,0.883361101151,0.69,2015_Jun_02_1437,59.9372947575,DondersAuditory,001,2,
15,0,15,0,space,0,0.766858816147,0.58,2015_Jun_02_1437,59.9372947575,DondersAuditory,001,2,
16,0,16,0,space,0,0.733139038086,0.51,2015_Jun_02_1437,59.9372947575,DondersAuditory,001,2,
17,0,17,0,space,0,1.06740498543,0.86,2015_Jun_02_1437,59.9372947575,DondersAuditory,001,2,
18,0,18,0,space,0,1.03460001945,0.82,2015_Jun_02_1437,59.9372947575,DondersAuditory,001,2,
19,0,19,0,space,0,0.816513061523,0.64,2015_Jun_02_1437,59.9372947575,DondersAuditory,001,2,
20,0,20,0,space,0,0.766306877136,0.56,2015_Jun_02_1437,59.9372947575,DondersAuditory,001,2,
21,0,21,0,space,0,0.850128889084,0.68,2015_Jun_02_1437,59.9372947575,DondersAuditory,001,2,
22,0,22,0,space,0,1.050303936,0.84,2015_Jun_02_1437,59.9372947575,DondersAuditory,001,2,
23,0,23,0,space,0,0.865977048874,0.68,2015_Jun_02_1437,59.9372947575,DondersAuditory,001,2,
24,0,24,0,space,0,1.14984703064,0.98,2015_Jun_02_1437,59.9372947575,DondersAuditory,001,2,
25,0,25,0,space,0,0.716876983643,0.5,2015_Jun_02_1437,59.9372947575,DondersAuditory,001,2,
26,0,26,0,space,0,0.633069038391,0.67,2015_Jun_02_1437,59.9372947575,DondersAuditory,001,2,
27,0,27,0,space,0,1.18305397034,0.94,2015_Jun_02_1437,59.9372947575,DondersAuditory,001,2,
28,0,28,0,space,0,0.932996034622,0.73,2015_Jun_02_1437,59.9372947575,DondersAuditory,001,2,
29,0,29,0,space,0,1.18371105194,0.99,2015_Jun_02_1437,59.9372947575,DondersAuditory,001,2,
30,0,30,0,space,0,0.900577068329,0.69,2015_Jun_02_1437,59.9372947575,DondersAuditory,001,2,
31,0,31,0,space,0,0.867065906525,0.62,2015_Jun_02_1437,59.9372947575,DondersAuditory,001,2,
32,0,32,0,space,0,0.966912031174,0.77,2015_Jun_02_1437,59.9372947575,DondersAuditory,001,2,
33,0,33,0,space,0,1.15031290054,0.96,2015_Jun_02_1437,59.9372947575,DondersAuditory,001,2,
34,0,34,0,space,0,0.882966995239,0.66,2015_Jun_02_1437,59.9372947575,DondersAuditory,001,2,
35,0,35,0,space,0,0.883486032486,0.67,2015_Jun_02_1437,59.9372947575,DondersAuditory,001,2,
36,0,36,0,space,0,0.883203983307,0.69,2015_Jun_02_1437,59.9372947575,DondersAuditory,001,2,
37,0,37,0,space,0,1.08336019516,0.86,2015_Jun_02_1437,59.9372947575,DondersAuditory,001,2,
38,0,38,0,space,0,0.900650978088,0.7,2015_Jun_02_1437,59.9372947575,DondersAuditory,001,2,
39,0,39,0,space,0,0.833249807358,0.64,2015_Jun_02_1437,59.9372947575,DondersAuditory,001,2,
40,0,40,0,space,0,1.15041995049,0.96,2015_Jun_02_1437,59.9372947575,DondersAuditory,001,2,
41,0,41,0,space,0,0.749730110168,0.53,2015_Jun_02_1437,59.9372947575,DondersAuditory,001,2,
42,0,42,0,space,0,0.867080926895,0.65,2015_Jun_02_1437,59.9372947575,DondersAuditory,001,2,
43,0,43,0,space,0,1.16729092598,0.98,2015_Jun_02_1437,59.9372947575,DondersAuditory,001,2,
44,0,44,0,space,0,1.15089011192,0.94,2015_Jun_02_1437,59.9372947575,DondersAuditory,001,2,
45,0,45,0,space,0,0.78337097168,0.51,2015_Jun_02_1437,59.9372947575,DondersAuditory,001,2,
46,0,46,0,space,0,0.749727964401,0.54,2015_Jun_02_1437,59.9372947575,DondersAuditory,001,2,
47,0,47,0,space,0,1.06697702408,0.85,2015_Jun_02_1437,59.9372947575,DondersAuditory,001,2,
48,0,48,0,space,0,0.850433826447,0.63,2015_Jun_02_1437,59.9372947575,DondersAuditory,001,2,
49,0,49,0,space,0,0.783268928528,0.5,2015_Jun_02_1437,59.9372947575,DondersAuditory,001,2,
50,0,50,0,space,0,0.916625976562,0.71,2015_Jun_02_1437,59.9372947575,DondersAuditory,001,2,
51,0,51,0,space,0,0.750039815903,0.54,2015_Jun_02_1437,59.9372947575,DondersAuditory,001,2,
52,0,52,0,space,0,1.1673438549,0.95,2015_Jun_02_1437,59.9372947575,DondersAuditory,001,2,
53,0,53,0,space,0,0.866809844971,0.66,2015_Jun_02_1437,59.9372947575,DondersAuditory,001,2,
54,0,54,0,space,0,0.783333063126,0.59,2015_Jun_02_1437,59.9372947575,DondersAuditory,001,2,
55,0,55,0,space,0,0.833591938019,0.63,2015_Jun_02_1437,59.9372947575,DondersAuditory,001,2,
56,0,56,0,space,0,0.98369383812,0.81,2015_Jun_02_1437,59.9372947575,DondersAuditory,001,2,
57,0,57,0,space,0,0.783213853836,0.55,2015_Jun_02_1437,59.9372947575,DondersAuditory,001,2,
58,0,58,0,space,0,0.783326148987,0.57,2015_Jun_02_1437,59.9372947575,DondersAuditory,001,2,
59,0,59,0,space,0,0.799787998199,0.59,2015_Jun_02_1437,59.9372947575,DondersAuditory,001,2,
60,0,60,0,space,0,0.783853054047,0.59,2015_Jun_02_1437,59.9372947575,DondersAuditory,001,2,
61,0,61,0,space,0,1.1669549942,0.99,2015_Jun_02_1437,59.9372947575,DondersAuditory,001,2,
62,0,62,0,space,0,1.13358783722,0.93,2015_Jun_02_1437,59.9372947575,DondersAuditory,001,2,
63,0,63,0,space,0,0.800077199936,0.59,2015_Jun_02_1437,59.9372947575,DondersAuditory,001,2,
64,0,64,0,space,0,0.800542116165,0.59,2015_Jun_02_1437,59.9372947575,DondersAuditory,001,2,
65,0,65,0,space,0,0.933047056198,0.77,2015_Jun_02_1437,59.9372947575,DondersAuditory,001,2,
66,0,66,0,space,0,1.01681303978,0.83,2015_Jun_02_1437,59.9372947575,DondersAuditory,001,2,
67,0,67,0,space,0,0.983278989792,0.79,2015_Jun_02_1437,59.9372947575,DondersAuditory,001,2,
68,0,68,0,space,0,1.00036478043,0.8,2015_Jun_02_1437,59.9372947575,DondersAuditory,001,2,
69,0,69,0,space,0,1.13426613808,0.91,2015_Jun_02_1437,59.9372947575,DondersAuditory,001,2,
70,0,70,0,space,0,0.867480993271,0.54,2015_Jun_02_1437,59.9372947575,DondersAuditory,001,2,
71,0,71,0,space,0,0.850003957748,0.64,2015_Jun_02_1437,59.9372947575,DondersAuditory,001,2,
72,0,72,0,space,0,0.850317001343,0.65,2015_Jun_02_1437,59.9372947575,DondersAuditory,001,2,
73,0,73,0,space,0,0.783407926559,0.59,2015_Jun_02_1437,59.9372947575,DondersAuditory,001,2,
74,0,74,0,space,0,1.13349199295,0.93,2015_Jun_02_1437,59.9372947575,DondersAuditory,001,2,
75,0,75,0,space,0,0.899969816208,0.65,2015_Jun_02_1437,59.9372947575,DondersAuditory,001,2,
76,0,76,0,space,0,0.950033187866,0.75,2015_Jun_02_1437,59.9372947575,DondersAuditory,001,2,
77,0,77,0,space,0,1.21716809273,0.99,2015_Jun_02_1437,59.9372947575,DondersAuditory,001,2,
78,0,78,0,space,0,1.2162361145,0.96,2015_Jun_02_1437,59.9372947575,DondersAuditory,001,2,
79,0,79,0,space,0,0.933503866196,0.64,2015_Jun_02_1437,59.9372947575,DondersAuditory,001,2,
80,0,80,0,space,0,1.18341612816,0.91,2015_Jun_02_1437,59.9372947575,DondersAuditory,001,2,
81,0,81,0,space,0,1.20043706894,0.96,2015_Jun_02_1437,59.9372947575,DondersAuditory,001,2,
82,0,82,0,space,0,0.916548013687,0.66,2015_Jun_02_1437,59.9372947575,DondersAuditory,001,2,
83,0,83,0,space,0,1.11768102646,0.88,2015_Jun_02_1437,59.9372947575,DondersAuditory,001,2,
84,0,84,0,space,0,1.20049190521,0.97,2015_Jun_02_1437,59.9372947575,DondersAuditory,001,2,
85,0,85,0,space,0,0.833166837692,0.58,2015_Jun_02_1437,59.9372947575,DondersAuditory,001,2,
86,0,86,0,space,0,1.00017309189,0.76,2015_Jun_02_1437,59.9372947575,DondersAuditory,001,2,
87,0,87,0,space,0,0.866081953049,0.64,2015_Jun_02_1437,59.9372947575,DondersAuditory,001,2,
88,0,88,0,space,0,0.800103902817,0.56,2015_Jun_02_1437,59.9372947575,DondersAuditory,001,2,
89,0,89,0,space,0,1.03348517418,0.81,2015_Jun_02_1437,59.9372947575,DondersAuditory,001,2,
90,0,90,0,space,0,0.900021076202,0.68,2015_Jun_02_1437,59.9372947575,DondersAuditory,001,2,
91,0,91,0,space,0,0.81628704071,0.54,2015_Jun_02_1437,59.9372947575,DondersAuditory,001,2,
92,0,92,0,space,0,1.16694688797,0.96,2015_Jun_02_1437,59.9372947575,DondersAuditory,001,2,
93,0,93,0,space,0,0.966239213943,0.72,2015_Jun_02_1437,59.9372947575,DondersAuditory,001,2,
94,0,94,0,space,0,1.18333101273,0.96,2015_Jun_02_1437,59.9372947575,DondersAuditory,001,2,
95,0,95,0,space,0,1.13395500183,0.88,2015_Jun_02_1437,59.9372947575,DondersAuditory,001,2,
96,0,96,0,space,0,1.16695189476,0.93,2015_Jun_02_1437,59.9372947575,DondersAuditory,001,2,
97,0,97,0,space,0,1.06681799889,0.64,2015_Jun_02_1437,59.9372947575,DondersAuditory,001,2,
98,0,98,0,space,0,1.06688809395,0.82,2015_Jun_02_1437,59.9372947575,DondersAuditory,001,2,
99,0,99,0,space,0,1.11646914482,0.88,2015_Jun_02_1437,59.9372947575,DondersAuditory,001,2,
